SubjectID,BlockNumber,IsControlBlock,TrialNumber,LeftImageNumber,RightImageNumber,LeftAvgRatingR1R2,LeftAvgRatingR1R2R3,RightAvgRatingR1R2,RightAvgRatingR1R2R3,Choice,RespTime
100,1,0,1,45,39,621.791044776119,628.955223880597,238.507462686567,273.134328358209,2,8.96501559903118
100,1,0,2,38,37,578.805970149254,519.10447761194,285.074626865671,218.20895522388,1,2.37761779525135
100,1,0,3,8,56,707.761194029851,688.656716417911,381.791044776119,261.194029850746,1,2.07348698653004
100,1,0,4,51,18,320.89552238806,316.119402985074,822.388059701492,755.522388059701,2,3.83234834273935
100,1,0,5,46,57,478.507462686567,519.10447761194,632.537313432836,686.268656716418,2,3.16410461919804
100,1,0,6,30,48,500,471.343283582089,328.059701492537,297.014925373134,2,6.61922316578057
100,1,0,7,17,34,292.238805970149,239.701492537313,331.641791044776,230.149253731343,1,4.76441148494814
100,1,0,8,3,24,711.34328358209,683.880597014926,374.626865671642,385.373134328358,1,3.36409397083844
100,1,0,9,8,34,707.761194029851,688.656716417911,331.641791044776,230.149253731343,1,2.10401115612876
100,1,0,10,48,37,328.059701492537,297.014925373134,285.074626865671,218.20895522388,2,2.73335279457388
100,1,0,11,39,56,238.507462686567,273.134328358209,381.791044776119,261.194029850746,2,6.68212065511034
100,1,0,12,3,38,711.34328358209,683.880597014926,578.805970149254,519.10447761194,1,2.43754529018406
100,1,0,13,46,24,478.507462686567,519.10447761194,374.626865671642,385.373134328358,1,3.79337356616816
100,1,0,14,45,30,621.791044776119,628.955223880597,500,471.343283582089,2,6.68068569237403
100,1,0,15,51,17,320.89552238806,316.119402985074,292.238805970149,239.701492537313,2,3.60705890210011
100,1,0,16,18,57,822.388059701492,755.522388059701,632.537313432836,686.268656716418,2,2.00931493090866
100,1,0,17,17,37,292.238805970149,239.701492537313,285.074626865671,218.20895522388,2,2.95828284057097
100,1,0,18,51,39,320.89552238806,316.119402985074,238.507462686567,273.134328358209,1,5.27313125824548
100,1,0,19,8,46,707.761194029851,688.656716417911,478.507462686567,519.10447761194,1,2.89742440118243
100,1,0,20,18,34,822.388059701492,755.522388059701,331.641791044776,230.149253731343,1,3.520287217234
100,1,0,21,48,56,328.059701492537,297.014925373134,381.791044776119,261.194029850746,1,2.05992610258363
100,1,0,22,45,24,621.791044776119,628.955223880597,374.626865671642,385.373134328358,2,2.10976552973443
100,1,0,23,3,57,711.34328358209,683.880597014926,632.537313432836,686.268656716418,1,1.80749004967402
100,1,0,24,30,38,500,471.343283582089,578.805970149254,519.10447761194,2,2.2002323288234
100,1,0,25,45,57,621.791044776119,628.955223880597,632.537313432836,686.268656716418,2,3.40164708033626
100,1,0,26,3,18,711.34328358209,683.880597014926,822.388059701492,755.522388059701,1,1.26701746134313
100,1,0,27,17,56,292.238805970149,239.701492537313,381.791044776119,261.194029850746,1,3.18554319002033
100,1,0,28,48,8,328.059701492537,297.014925373134,707.761194029851,688.656716417911,2,2.18274624626065
100,1,0,29,39,38,238.507462686567,273.134328358209,578.805970149254,519.10447761194,2,1.58782575330042
100,1,0,30,37,24,285.074626865671,218.20895522388,374.626865671642,385.373134328358,2,1.494322072047
100,1,0,31,51,30,320.89552238806,316.119402985074,500,471.343283582089,1,1.55227189318612
100,1,0,32,45,56,621.791044776119,628.955223880597,381.791044776119,261.194029850746,1,1.51715653523752
100,1,0,33,18,46,822.388059701492,755.522388059701,478.507462686567,519.10447761194,1,1.51541285149142
100,1,0,34,51,37,320.89552238806,316.119402985074,285.074626865671,218.20895522388,1,1.22863458409483
100,1,0,35,3,34,711.34328358209,683.880597014926,331.641791044776,230.149253731343,1,2.42348193247562
100,1,0,36,38,8,578.805970149254,519.10447761194,707.761194029851,688.656716417911,1,1.89602037676377
100,1,0,37,48,17,328.059701492537,297.014925373134,292.238805970149,239.701492537313,1,2.2056559363009
100,1,0,38,39,24,238.507462686567,273.134328358209,374.626865671642,385.373134328358,2,1.57899522564912
100,1,0,39,30,46,500,471.343283582089,478.507462686567,519.10447761194,1,2.1816526898001
100,1,0,40,34,57,331.641791044776,230.149253731343,632.537313432836,686.268656716418,2,2.43461171385388
100,2,0,41,25,13,603.880597014925,514.328358208955,131.044776119403,105.970149253731,1,3.81928482809053
100,2,0,42,55,26,38.6567164179103,41.9900497512436,657.611940298508,664.776119402985,2,2.95667436088479
100,2,0,43,53,44,492.835820895522,409.253731343284,73.7313432835818,53.4328358208952,1,1.63136774869963
100,2,0,44,52,28,299.402985074627,265.970149253731,317.313432835821,402.089552238806,1,1.61995782119084
100,2,0,45,42,36,761.492537313433,667.164179104478,496.417910447761,545.373134328358,2,5.37223658377843
100,2,0,46,22,27,0,6.66666666666657,485.671641791045,430.746268656716,2,2.6774180570701
100,2,0,47,15,50,106.716417910448,89.7512437810943,424.776119402985,514.328358208955,2,6.39021577967105
100,2,0,48,54,31,1000,1000,414.029850746269,382.985074626866,2,3.76693405578408
100,2,0,49,50,27,424.776119402985,514.328358208955,485.671641791045,430.746268656716,1,2.11534002764893
100,2,0,50,26,31,657.611940298508,664.776119402985,414.029850746269,382.985074626866,1,2.77616576448781
100,2,0,51,55,22,38.6567164179103,41.9900497512436,0,6.66666666666657,1,1.63674983594683
100,2,0,52,36,28,496.417910447761,545.373134328358,317.313432835821,402.089552238806,2,0.816184645371322
100,2,0,53,53,42,492.835820895522,409.253731343284,761.492537313433,667.164179104478,1,0.964999967209224
100,2,0,54,44,13,73.7313432835818,53.4328358208952,131.044776119403,105.970149253731,2,0.961576921621599
100,2,0,55,54,25,1000,1000,603.880597014925,514.328358208955,1,0.57032617034929
100,2,0,56,15,52,106.716417910448,89.7512437810943,299.402985074627,265.970149253731,2,0.700371366896434
100,2,0,57,22,28,0,6.66666666666657,317.313432835821,402.089552238806,1,0.979860202671262
100,2,0,58,31,42,414.029850746269,382.985074626866,761.492537313433,667.164179104478,2,0.636801474078311
100,2,0,59,15,13,106.716417910448,89.7512437810943,131.044776119403,105.970149253731,1,0.49909106197083
100,2,0,60,26,27,657.611940298508,664.776119402985,485.671641791045,430.746268656716,1,1.20482217416611
100,2,0,61,53,36,492.835820895522,409.253731343284,496.417910447761,545.373134328358,2,1.77799473382947
100,2,0,62,44,52,73.7313432835818,53.4328358208952,299.402985074627,265.970149253731,1,0.766343584975402
100,2,0,63,55,54,38.6567164179103,41.9900497512436,1000,1000,2,1.06018362219766
100,2,0,64,15,36,106.716417910448,89.7512437810943,496.417910447761,545.373134328358,2,1.61176015805177
100,2,0,65,26,25,657.611940298508,664.776119402985,603.880597014925,514.328358208955,1,1.31194916644381
100,2,0,66,28,27,317.313432835821,402.089552238806,485.671641791045,430.746268656716,1,1.91936725416235
100,2,0,67,31,22,414.029850746269,382.985074626866,0,6.66666666666657,1,0.726253296470531
100,2,0,68,44,50,73.7313432835818,53.4328358208952,424.776119402985,514.328358208955,1,0.994453412511575
100,2,0,69,53,52,492.835820895522,409.253731343284,299.402985074627,265.970149253731,2,0.806783764410284
100,2,0,70,54,42,1000,1000,761.492537313433,667.164179104478,1,3.1793069024061
100,2,0,71,55,13,38.6567164179103,41.9900497512436,131.044776119403,105.970149253731,2,2.43557680166487
100,2,0,72,31,52,414.029850746269,382.985074626866,299.402985074627,265.970149253731,1,2.36044652764213
100,2,0,73,15,28,106.716417910448,89.7512437810943,317.313432835821,402.089552238806,2,2.15404681639666
100,2,0,74,26,50,657.611940298508,664.776119402985,424.776119402985,514.328358208955,1,2.01636801134737
100,2,0,75,55,25,38.6567164179103,41.9900497512436,603.880597014925,514.328358208955,2,0.89722747066844
100,2,0,76,53,13,492.835820895522,409.253731343284,131.044776119403,105.970149253731,2,2.72470126592088
100,2,0,77,54,22,1000,1000,0,6.66666666666657,1,2.89003501663501
100,2,0,78,44,27,73.7313432835818,53.4328358208952,485.671641791045,430.746268656716,2,1.77550869706465
100,2,0,79,36,50,496.417910447761,545.373134328358,424.776119402985,514.328358208955,1,1.98570414650021
100,2,0,80,25,42,603.880597014925,514.328358208955,761.492537313433,667.164179104478,2,2.26810046316496
100,3,1,81,40,21,725.671641791045,695.820895522388,571.641791044776,581.194029850746,1,3.44459236081093
100,3,1,82,23,49,335.223880597015,416.417910447761,95.2238805970146,86.8656716417908,1,1.36292180503733
100,3,1,83,20,11,550.149253731343,488.059701492537,682.686567164179,674.328358208955,2,1.40722475830989
100,3,1,84,1,4,697.014925373134,688.656716417911,765.074626865671,710.149253731343,1,1.72558094983287
100,3,1,85,2,10,657.611940298508,662.388059701493,510.746268656716,566.865671641791,1,2.34002386614156
100,3,1,86,6,16,772.238805970149,741.194029850746,851.044776119403,822.388059701492,1,2.19997031893581
100,3,1,87,19,33,768.65671641791,760.298507462686,446.268656716418,464.179104477612,1,1.09234904639379
100,3,1,88,29,7,374.626865671642,368.65671641791,618.208955223881,633.731343283582,2,1.40151694886663
100,3,1,89,20,1,550.149253731343,488.059701492537,697.014925373134,688.656716417911,2,1.1285823365688
100,3,1,90,19,4,768.65671641791,760.298507462686,765.074626865671,710.149253731343,2,2.04548649462777
100,3,1,91,21,49,571.641791044776,581.194029850746,95.2238805970146,86.8656716417908,1,1.31295726215103
100,3,1,92,11,29,682.686567164179,674.328358208955,374.626865671642,368.65671641791,1,1.15232689652476
100,3,1,93,40,2,725.671641791045,695.820895522388,657.611940298508,662.388059701493,2,1.29758449417932
100,3,1,94,10,33,510.746268656716,566.865671641791,446.268656716418,464.179104477612,1,0.995629397542871
100,3,1,95,16,7,851.044776119403,822.388059701492,618.208955223881,633.731343283582,1,1.82297277016733
100,3,1,96,6,23,772.238805970149,741.194029850746,335.223880597015,416.417910447761,1,1.10298457708632
100,3,1,97,20,7,550.149253731343,488.059701492537,618.208955223881,633.731343283582,2,1.09919446652748
100,3,1,98,2,23,657.611940298508,662.388059701493,335.223880597015,416.417910447761,1,0.999416942233438
100,3,1,99,40,10,725.671641791045,695.820895522388,510.746268656716,566.865671641791,2,0.885724384797868
100,3,1,100,29,19,374.626865671642,368.65671641791,768.65671641791,760.298507462686,2,1.07280819794141
100,3,1,101,21,4,571.641791044776,581.194029850746,765.074626865671,710.149253731343,2,1.03954280260587
100,3,1,102,16,1,851.044776119403,822.388059701492,697.014925373134,688.656716417911,1,1.34837268129922
100,3,1,103,6,49,772.238805970149,741.194029850746,95.2238805970146,86.8656716417908,1,1.0394068115038
100,3,1,104,11,33,682.686567164179,674.328358208955,446.268656716418,464.179104477612,1,1.38799062233375
100,3,1,105,16,49,851.044776119403,822.388059701492,95.2238805970146,86.8656716417908,1,1.04104899780759
100,3,1,106,29,23,374.626865671642,368.65671641791,335.223880597015,416.417910447761,1,1.09932019415101
100,3,1,107,21,2,571.641791044776,581.194029850746,657.611940298508,662.388059701493,2,0.813551712557455
100,3,1,108,6,33,772.238805970149,741.194029850746,446.268656716418,464.179104477612,1,0.750332732020979
100,3,1,109,20,10,550.149253731343,488.059701492537,510.746268656716,566.865671641791,2,0.683729601109007
100,3,1,110,40,1,725.671641791045,695.820895522388,697.014925373134,688.656716417911,2,0.587047041366532
100,3,1,111,11,7,682.686567164179,674.328358208955,618.208955223881,633.731343283582,2,0.71235430001434
100,3,1,112,4,49,765.074626865671,710.149253731343,95.2238805970146,86.8656716417908,1,0.771224656551567
100,3,1,113,29,10,374.626865671642,368.65671641791,510.746268656716,566.865671641791,2,0.746063706841596
100,3,1,114,20,19,550.149253731343,488.059701492537,768.65671641791,760.298507462686,2,0.934574173219517
100,3,1,115,11,16,682.686567164179,674.328358208955,851.044776119403,822.388059701492,2,0.707603096025196
100,3,1,116,40,23,725.671641791045,695.820895522388,335.223880597015,416.417910447761,1,0.928428302944667
100,3,1,117,21,7,571.641791044776,581.194029850746,618.208955223881,633.731343283582,2,1.05449027764735
100,3,1,118,1,33,697.014925373134,688.656716417911,446.268656716418,464.179104477612,1,0.735761302499668
100,3,1,119,2,19,657.611940298508,662.388059701493,768.65671641791,760.298507462686,2,1.31898020498011
100,3,1,120,6,4,772.238805970149,741.194029850746,765.074626865671,710.149253731343,2,2.17239777226496
101,1,0,1,23,16,542.985074626866,566.865671641791,797.313432835821,741.194029850746,2,8.80496798803233
101,1,0,2,28,56,510.746268656716,521.492537313433,310.149253731343,320.89552238806,3,10.0029585334732
101,1,0,3,14,7,431.940298507463,466.567164179104,356.716417910448,421.194029850746,1,2.72737697290995
101,1,0,4,2,22,593.134328358209,600.298507462687,532.238805970149,535.820895522388,2,2.05303036156329
101,1,0,5,37,43,0,0,833.134328358209,820,1,5.19888997493308
101,1,0,6,1,11,628.955223880597,626.567164179105,933.432835820894,937.014925373133,2,3.85293164003542
101,1,0,7,17,5,313.731343283582,404.477611940298,371.044776119403,425.970149253731,2,3.36606933283292
101,1,0,8,21,53,575.223880597015,566.865671641791,897.611940298507,931.741293532338,2,2.19978129112678
101,1,0,9,43,7,833.134328358209,820,356.716417910448,421.194029850746,2,3.06016441917473
101,1,0,10,23,1,542.985074626866,566.865671641791,628.955223880597,626.567164179105,1,3.51425874858796
101,1,0,11,28,2,510.746268656716,521.492537313433,593.134328358209,600.298507462687,2,4.48998633875362
101,1,0,12,21,16,575.223880597015,566.865671641791,797.313432835821,741.194029850746,2,2.15117200418263
101,1,0,13,5,37,371.044776119403,425.970149253731,0,0,2,2.84062576751603
101,1,0,14,14,11,431.940298507463,466.567164179104,933.432835820894,937.014925373133,2,3.25137435444776
101,1,0,15,17,56,313.731343283582,404.477611940298,310.149253731343,320.89552238806,1,1.92172399479477
101,1,0,16,22,53,532.238805970149,535.820895522388,897.611940298507,931.741293532338,2,1.67264938883909
101,1,0,17,37,16,0,0,797.313432835821,741.194029850746,2,1.60979443796077
101,1,0,18,17,22,313.731343283582,404.477611940298,532.238805970149,535.820895522388,1,2.46500254377406
101,1,0,19,43,11,833.134328358209,820,933.432835820894,937.014925373133,2,1.30543417302215
101,1,0,20,28,53,510.746268656716,521.492537313433,897.611940298507,931.741293532338,2,3.38359737529481
101,1,0,21,23,21,542.985074626866,566.865671641791,575.223880597015,566.865671641791,2,3.65973123757976
101,1,0,22,2,1,593.134328358209,600.298507462687,628.955223880597,626.567164179105,1,2.1569567392944
101,1,0,23,14,5,431.940298507463,466.567164179104,371.044776119403,425.970149253731,2,4.16939411222393
101,1,0,24,28,7,510.746268656716,521.492537313433,356.716417910448,421.194029850746,2,4.11660792323164
101,1,0,25,21,1,575.223880597015,566.865671641791,628.955223880597,626.567164179105,2,4.84604262221183
101,1,0,26,5,11,371.044776119403,425.970149253731,933.432835820894,937.014925373133,2,1.29508990174145
101,1,0,27,17,23,313.731343283582,404.477611940298,542.985074626866,566.865671641791,1,1.39516427965555
101,1,0,28,56,16,310.149253731343,320.89552238806,797.313432835821,741.194029850746,2,0.733132200612999
101,1,0,29,14,43,431.940298507463,466.567164179104,833.134328358209,820,1,1.99235190283798
101,1,0,30,2,53,593.134328358209,600.298507462687,897.611940298507,931.741293532338,2,3.08661749068779
101,1,0,31,22,37,532.238805970149,535.820895522388,0,0,2,3.0610223791673
101,1,0,32,2,5,593.134328358209,600.298507462687,371.044776119403,425.970149253731,2,2.55704032223821
101,1,0,33,28,17,510.746268656716,521.492537313433,313.731343283582,404.477611940298,1,3.87414458057356
101,1,0,34,11,7,933.432835820894,937.014925373133,356.716417910448,421.194029850746,1,1.89049328887086
101,1,0,35,22,1,532.238805970149,535.820895522388,628.955223880597,626.567164179105,1,3.69085866757177
101,1,0,36,14,37,431.940298507463,466.567164179104,0,0,1,1.12868703772619
101,1,0,37,43,16,833.134328358209,820,797.313432835821,741.194029850746,2,1.40376023694898
101,1,0,38,56,23,310.149253731343,320.89552238806,542.985074626866,566.865671641791,2,1.88159103184262
101,1,0,39,7,53,356.716417910448,421.194029850746,897.611940298507,931.741293532338,2,1.04784283075332
101,1,0,40,56,21,310.149253731343,320.89552238806,575.223880597015,566.865671641791,2,2.49315678156745
101,2,0,41,54,59,611.044776119403,614.626865671642,274.328358208955,340,2,5.36158869690917
101,2,0,42,8,4,406.865671641791,459.402985074627,471.343283582089,490.44776119403,2,3.57847392687927
101,2,0,43,6,60,865.373134328358,853.432835820895,177.611940298507,244.477611940298,1,4.36747510428904
101,2,0,44,31,12,754.328358208955,722.089552238806,435.522388059701,476.119402985075,1,2.9034377402113
101,2,0,45,47,50,750,833.333333333333,793.731343283582,815.223880597015,1,1.5332009015583
101,2,0,46,25,46,550.149253731343,562.089552238806,883.283582089551,870.149253731343,2,3.10888115157559
101,2,0,47,9,35,754.328358208955,774.626865671642,729.253731343284,741.194029850746,1,0.883474695034238
101,2,0,48,39,32,363.880597014925,382.985074626866,858.20895522388,829.55223880597,2,1.86056636140438
101,2,0,49,60,25,177.611940298507,244.477611940298,550.149253731343,562.089552238806,1,3.82061814049212
101,2,0,50,50,54,793.731343283582,815.223880597015,611.044776119403,614.626865671642,1,1.79101996405007
101,2,0,51,6,12,865.373134328358,853.432835820895,435.522388059701,476.119402985075,1,3.11642542632126
101,2,0,52,31,46,754.328358208955,722.089552238806,883.283582089551,870.149253731343,1,2.24340863692578
101,2,0,53,47,59,750,833.333333333333,274.328358208955,340,1,2.00372989563493
101,2,0,54,39,9,363.880597014925,382.985074626866,754.328358208955,774.626865671642,2,1.29923890004557
101,2,0,55,8,35,406.865671641791,459.402985074627,729.253731343284,741.194029850746,2,4.82745006789355
101,2,0,56,32,4,858.20895522388,829.55223880597,471.343283582089,490.44776119403,2,2.59506286397482
101,2,0,57,60,12,177.611940298507,244.477611940298,435.522388059701,476.119402985075,1,1.75003962528626
101,2,0,58,32,46,858.20895522388,829.55223880597,883.283582089551,870.149253731343,1,3.52687701476498
101,2,0,59,39,50,363.880597014925,382.985074626866,793.731343283582,815.223880597015,2,2.30155074140112
101,2,0,60,25,54,550.149253731343,562.089552238806,611.044776119403,614.626865671642,2,2.7559026191775
101,2,0,61,8,47,406.865671641791,459.402985074627,750,833.333333333333,2,1.38379558810811
101,2,0,62,6,31,865.373134328358,853.432835820895,754.328358208955,722.089552238806,1,3.3495147141366
101,2,0,63,4,35,471.343283582089,490.44776119403,729.253731343284,741.194029850746,2,3.15904599215082
101,2,0,64,9,59,754.328358208955,774.626865671642,274.328358208955,340,1,1.87560583878985
101,2,0,65,31,8,754.328358208955,722.089552238806,406.865671641791,459.402985074627,1,3.00462538135434
101,2,0,66,39,60,363.880597014925,382.985074626866,177.611940298507,244.477611940298,1,2.07135029308029
101,2,0,67,12,35,435.522388059701,476.119402985075,729.253731343284,741.194029850746,2,1.89013695483391
101,2,0,68,6,47,865.373134328358,853.432835820895,750,833.333333333333,2,1.70344229461625
101,2,0,69,32,50,858.20895522388,829.55223880597,793.731343283582,815.223880597015,2,4.46126696992997
101,2,0,70,4,54,471.343283582089,490.44776119403,611.044776119403,614.626865671642,2,3.05692149077004
101,2,0,71,9,25,754.328358208955,774.626865671642,550.149253731343,562.089552238806,1,1.10557279369823
101,2,0,72,39,59,363.880597014925,382.985074626866,274.328358208955,340,2,2.01683535479424
101,2,0,73,31,9,754.328358208955,722.089552238806,754.328358208955,774.626865671642,2,1.53665358915441
101,2,0,74,6,4,865.373134328358,853.432835820895,471.343283582089,490.44776119403,1,1.38323783393025
101,2,0,75,50,35,793.731343283582,815.223880597015,729.253731343284,741.194029850746,1,1.31496314176093
101,2,0,76,54,12,611.044776119403,614.626865671642,435.522388059701,476.119402985075,1,2.12934678490637
101,2,0,77,8,46,406.865671641791,459.402985074627,883.283582089551,870.149253731343,1,3.01943104459588
101,2,0,78,32,60,858.20895522388,829.55223880597,177.611940298507,244.477611940298,2,3.14057050527026
101,2,0,79,46,47,883.283582089551,870.149253731343,750,833.333333333333,2,1.93985341108328
101,2,0,80,25,59,550.149253731343,562.089552238806,274.328358208955,340,2,1.69209509215852
101,3,1,81,13,36,507.164179104478,521.492537313433,811.641791044776,796.119402985075,2,2.66312940061562
101,3,1,82,10,52,851.044776119403,841.492537313433,313.731343283582,342.388059701492,1,0.879459442269763
101,3,1,83,15,40,453.432835820895,452.238805970149,854.626865671641,858.20895522388,2,1.03755019743858
101,3,1,84,26,45,915.5223880597,855.820895522387,607.462686567164,664.776119402985,2,2.34654504999889
101,3,1,85,49,44,396.119402985075,428.358208955224,195.522388059701,203.880597014925,1,0.932761048723478
101,3,1,86,30,41,571.641791044776,559.701492537313,360.298507462686,428.358208955224,1,1.49981807916811
101,3,1,87,58,19,381.791044776119,404.477611940298,944.179104477611,908.358208955223,2,1.89273007877273
101,3,1,88,20,24,442.686567164179,468.955223880597,861.791044776119,855.820895522388,2,1.46133143720454
101,3,1,89,15,41,453.432835820895,452.238805970149,360.298507462686,428.358208955224,1,2.94068058073572
101,3,1,90,49,13,396.119402985075,428.358208955224,507.164179104478,521.492537313433,2,2.24609637701451
101,3,1,91,24,26,861.791044776119,855.820895522388,915.5223880597,855.820895522387,1,0.907489235772118
101,3,1,92,10,45,851.044776119403,841.492537313433,607.462686567164,664.776119402985,1,0.735841109059038
101,3,1,93,30,44,571.641791044776,559.701492537313,195.522388059701,203.880597014925,1,0.939002827943114
101,3,1,94,19,36,944.179104477611,908.358208955223,811.641791044776,796.119402985075,2,1.9280600694301
101,3,1,95,20,58,442.686567164179,468.955223880597,381.791044776119,404.477611940298,2,2.55134186422492
101,3,1,96,52,40,313.731343283582,342.388059701492,854.626865671641,858.20895522388,2,0.883401567976762
101,3,1,97,41,19,360.298507462686,428.358208955224,944.179104477611,908.358208955223,2,1.12344851041598
101,3,1,98,13,40,507.164179104478,521.492537313433,854.626865671641,858.20895522388,2,0.894998300480438
101,3,1,99,49,20,396.119402985075,428.358208955224,442.686567164179,468.955223880597,2,3.75250349394537
101,3,1,100,52,26,313.731343283582,342.388059701492,915.5223880597,855.820895522387,2,0.793609239197394
101,3,1,101,30,58,571.641791044776,559.701492537313,381.791044776119,404.477611940298,1,2.04111129268858
101,3,1,102,15,45,453.432835820895,452.238805970149,607.462686567164,664.776119402985,2,1.11127061024672
101,3,1,103,24,36,861.791044776119,855.820895522388,811.641791044776,796.119402985075,1,2.36488230108171
101,3,1,104,10,44,851.044776119403,841.492537313433,195.522388059701,203.880597014925,1,0.971404528981111
101,3,1,105,49,40,396.119402985075,428.358208955224,854.626865671641,858.20895522388,2,1.0330442236309
101,3,1,106,10,19,851.044776119403,841.492537313433,944.179104477611,908.358208955223,1,0.73898493105844
101,3,1,107,41,45,360.298507462686,428.358208955224,607.462686567164,664.776119402985,2,0.865217947860401
101,3,1,108,15,52,453.432835820895,452.238805970149,313.731343283582,342.388059701492,1,1.56405955754053
101,3,1,109,26,36,915.5223880597,855.820895522387,811.641791044776,796.119402985075,1,1.03316225326671
101,3,1,110,13,44,507.164179104478,521.492537313433,195.522388059701,203.880597014925,1,1.14712243301892
101,3,1,111,30,24,571.641791044776,559.701492537313,861.791044776119,855.820895522388,2,0.851308091070678
101,3,1,112,10,20,851.044776119403,841.492537313433,442.686567164179,468.955223880597,1,0.595748590502808
101,3,1,113,30,13,571.641791044776,559.701492537313,507.164179104478,521.492537313433,1,1.58439753925359
101,3,1,114,58,52,381.791044776119,404.477611940298,313.731343283582,342.388059701492,1,0.952012388022922
101,3,1,115,15,36,453.432835820895,452.238805970149,811.641791044776,796.119402985075,2,1.24627694952869
101,3,1,116,26,19,915.5223880597,855.820895522387,944.179104477611,908.358208955223,1,0.708336996464823
101,3,1,117,49,45,396.119402985075,428.358208955224,607.462686567164,664.776119402985,2,0.997269055976176
101,3,1,118,24,40,861.791044776119,855.820895522388,854.626865671641,858.20895522388,1,2.36654337577329
101,3,1,119,20,44,442.686567164179,468.955223880597,195.522388059701,203.880597014925,1,0.727126480664992
101,3,1,120,41,58,360.298507462686,428.358208955224,381.791044776119,404.477611940298,2,1.05831924390895
102,1,0,1,38,37,593.134328358209,662.388059701493,585.970149253731,595.522388059701,3,10.004661830927
102,1,0,2,6,3,507.164179104478,547.761194029851,772.238805970149,812.835820895522,3,10.0056580109122
102,1,0,3,13,14,618.208955223881,602.686567164179,650.44776119403,667.164179104478,2,1.33088720983596
102,1,0,4,52,40,611.044776119403,588.358208955224,897.611940298507,903.582089552238,2,1.02566310828661
102,1,0,5,23,10,603.880597014925,602.686567164179,500,521.492537313433,1,1.14062523868324
102,1,0,6,45,16,510.746268656716,526.268656716418,761.492537313433,698.208955223881,2,0.718490177915555
102,1,0,7,30,34,403.283582089552,418.805970149254,345.970149253731,375.820895522388,1,1.09934326067378
102,1,0,8,49,27,385.373134328358,440.298507462686,693.432835820896,662.388059701493,2,0.834528167023564
102,1,0,9,45,52,510.746268656716,526.268656716418,611.044776119403,588.358208955224,1,1.3287141396886
102,1,0,10,6,34,507.164179104478,547.761194029851,345.970149253731,375.820895522388,2,1.07944134777972
102,1,0,11,23,49,603.880597014925,602.686567164179,385.373134328358,440.298507462686,2,0.980270479220053
102,1,0,12,37,14,585.970149253731,595.522388059701,650.44776119403,667.164179104478,2,0.637330284386735
102,1,0,13,30,16,403.283582089552,418.805970149254,761.492537313433,698.208955223881,1,0.988539548617155
102,1,0,14,13,40,618.208955223881,602.686567164179,897.611940298507,903.582089552238,2,0.681542609518146
102,1,0,15,3,10,772.238805970149,812.835820895522,500,521.492537313433,2,0.822768426870425
102,1,0,16,45,27,510.746268656716,526.268656716418,693.432835820896,662.388059701493,1,0.51959870140945
102,1,0,17,49,40,385.373134328358,440.298507462686,897.611940298507,903.582089552238,2,0.68862111146791
102,1,0,18,3,23,772.238805970149,812.835820895522,603.880597014925,602.686567164179,1,0.873862275079773
102,1,0,19,6,30,507.164179104478,547.761194029851,403.283582089552,418.805970149254,1,0.856158818105541
102,1,0,20,37,10,585.970149253731,595.522388059701,500,521.492537313433,2,0.737587780134163
102,1,0,21,38,13,593.134328358209,662.388059701493,618.208955223881,602.686567164179,1,1.00184255015029
102,1,0,22,16,14,761.492537313433,698.208955223881,650.44776119403,667.164179104478,2,0.774145242942723
102,1,0,23,34,52,345.970149253731,375.820895522388,611.044776119403,588.358208955224,1,0.991242059746583
102,1,0,24,10,27,500,521.492537313433,693.432835820896,662.388059701493,2,1.14988411775994
102,1,0,25,34,37,345.970149253731,375.820895522388,585.970149253731,595.522388059701,1,1.29980771258124
102,1,0,26,45,13,510.746268656716,526.268656716418,618.208955223881,602.686567164179,2,0.97291504666191
102,1,0,27,38,52,593.134328358209,662.388059701493,611.044776119403,588.358208955224,1,0.769526776638486
102,1,0,28,23,14,603.880597014925,602.686567164179,650.44776119403,667.164179104478,2,0.850404010723651
102,1,0,29,30,40,403.283582089552,418.805970149254,897.611940298507,903.582089552238,1,0.849861762547334
102,1,0,30,6,16,507.164179104478,547.761194029851,761.492537313433,698.208955223881,2,0.71520136363597
102,1,0,31,3,49,772.238805970149,812.835820895522,385.373134328358,440.298507462686,1,0.700135626030715
102,1,0,32,6,45,507.164179104478,547.761194029851,510.746268656716,526.268656716418,2,0.57961191042159
102,1,0,33,38,16,593.134328358209,662.388059701493,761.492537313433,698.208955223881,1,1.27296253349778
102,1,0,34,23,13,603.880597014925,602.686567164179,618.208955223881,602.686567164179,2,1.05034128898842
102,1,0,35,34,10,345.970149253731,375.820895522388,500,521.492537313433,2,1.17165621287313
102,1,0,36,27,40,693.432835820896,662.388059701493,897.611940298507,903.582089552238,1,1.56949923540014
102,1,0,37,3,14,772.238805970149,812.835820895522,650.44776119403,667.164179104478,2,0.802433086999372
102,1,0,38,49,37,385.373134328358,440.298507462686,585.970149253731,595.522388059701,1,1.13487485500445
102,1,0,39,38,30,593.134328358209,662.388059701493,403.283582089552,418.805970149254,2,1.06678171799103
102,1,0,40,52,27,611.044776119403,588.358208955224,693.432835820896,662.388059701493,2,0.907304717463376
102,2,0,41,35,51,782.985074626866,755.522388059702,500,564.477611940299,2,1.19661357266068
102,2,0,42,21,31,775.820895522388,784.179104477612,904.776119402984,870.149253731343,1,1.19368571482573
102,2,0,43,4,43,693.432835820896,667.164179104478,593.134328358209,588.358208955224,2,0.950809593819031
102,2,0,44,9,22,761.492537313433,777.014925373135,410.44776119403,461.791044776119,2,0.794135151471892
102,2,0,45,55,20,367.462686567164,390.149253731343,804.477611940299,812.835820895522,1,1.03260669521023
102,2,0,46,54,11,206.268656716418,230.149253731343,650.44776119403,636.119402985075,1,0.930599134080694
102,2,0,47,41,2,328.059701492537,406.865671641791,621.791044776119,602.686567164179,2,0.75156210172463
102,2,0,48,59,47,765.074626865672,745.970149253732,722.089552238806,679.104477611941,1,0.736142225212461
102,2,0,49,55,22,367.462686567164,390.149253731343,410.44776119403,461.791044776119,2,0.888332821077711
102,2,0,50,21,2,775.820895522388,784.179104477612,621.791044776119,602.686567164179,2,0.825431189083247
102,2,0,51,11,31,650.44776119403,636.119402985075,904.776119402984,870.149253731343,2,0.667500406467298
102,2,0,52,54,20,206.268656716418,230.149253731343,804.477611940299,812.835820895522,1,0.957409788119548
102,2,0,53,4,47,693.432835820896,667.164179104478,722.089552238806,679.104477611941,2,0.761135392985125
102,2,0,54,43,9,593.134328358209,588.358208955224,761.492537313433,777.014925373135,1,0.488924797127765
102,2,0,55,41,51,328.059701492537,406.865671641791,500,564.477611940299,2,0.651295809632757
102,2,0,56,35,59,782.985074626866,755.522388059702,765.074626865672,745.970149253732,1,0.788837302351567
102,2,0,57,4,9,693.432835820896,667.164179104478,761.492537313433,777.014925373135,2,1.07897456438695
102,2,0,58,54,41,206.268656716418,230.149253731343,328.059701492537,406.865671641791,1,0.655929055266824
102,2,0,59,35,55,782.985074626866,755.522388059702,367.462686567164,390.149253731343,2,0.676440246567836
102,2,0,60,43,22,593.134328358209,588.358208955224,410.44776119403,461.791044776119,2,0.530649938466922
102,2,0,61,31,2,904.776119402984,870.149253731343,621.791044776119,602.686567164179,2,0.885090236993165
102,2,0,62,47,21,722.089552238806,679.104477611941,775.820895522388,784.179104477612,1,0.661132951296167
102,2,0,63,59,51,765.074626865672,745.970149253732,500,564.477611940299,2,0.685000657442288
102,2,0,64,11,20,650.44776119403,636.119402985075,804.477611940299,812.835820895522,2,1.13730499239773
102,2,0,65,4,2,693.432835820896,667.164179104478,621.791044776119,602.686567164179,2,0.876108933329306
102,2,0,66,11,55,650.44776119403,636.119402985075,367.462686567164,390.149253731343,1,0.52023183183519
102,2,0,67,9,31,761.492537313433,777.014925373135,904.776119402984,870.149253731343,1,0.878263238825639
102,2,0,68,59,21,765.074626865672,745.970149253732,775.820895522388,784.179104477612,2,0.617346904861733
102,2,0,69,47,20,722.089552238806,679.104477611941,804.477611940299,812.835820895522,2,0.555275655173318
102,2,0,70,35,22,782.985074626866,755.522388059702,410.44776119403,461.791044776119,1,0.562935077703514
102,2,0,71,41,43,328.059701492537,406.865671641791,593.134328358209,588.358208955224,2,0.860868487392509
102,2,0,72,54,31,206.268656716418,230.149253731343,904.776119402984,870.149253731343,2,0.832701995387652
102,2,0,73,9,51,761.492537313433,777.014925373135,500,564.477611940299,1,0.595005781886357
102,2,0,74,43,59,593.134328358209,588.358208955224,765.074626865672,745.970149253732,2,0.825414167945382
102,2,0,75,4,22,693.432835820896,667.164179104478,410.44776119403,461.791044776119,2,0.70150733869923
102,2,0,76,41,21,328.059701492537,406.865671641791,775.820895522388,784.179104477612,1,0.652033934636165
102,2,0,77,11,47,650.44776119403,636.119402985075,722.089552238806,679.104477611941,2,0.618528904585219
102,2,0,78,35,20,782.985074626866,755.522388059702,804.477611940299,812.835820895522,2,1.07285609150676
102,2,0,79,54,2,206.268656716418,230.149253731343,621.791044776119,602.686567164179,2,0.675478842442317
102,2,0,80,55,51,367.462686567164,390.149253731343,500,564.477611940299,1,0.700729811045676
102,3,1,81,46,17,800.89552238806,765.074626865672,707.761194029851,657.611940298508,2,1.31615528386465
102,3,1,82,36,24,714.925373134329,674.328358208955,790.149253731343,757.910447761194,2,0.975623788256598
102,3,1,83,29,48,750.746268656717,745.970149253732,747.164179104478,681.492537313433,1,0.786556509713591
102,3,1,84,7,18,360.298507462686,421.194029850746,650.44776119403,731.641791044776,2,0.777762924665694
102,3,1,85,58,19,911.940298507462,910.746268656715,800.89552238806,867.26368159204,2,0.813895506024892
102,3,1,86,57,42,804.477611940299,803.283582089552,349.55223880597,366.268656716418,1,0.816609036445698
102,3,1,87,26,8,804.477611940299,836.716417910447,378.20895522388,480.89552238806,1,0.800387809128551
102,3,1,88,12,60,449.850746268657,500,650.44776119403,671.940298507463,2,0.840912049588042
102,3,1,89,24,42,790.149253731343,757.910447761194,349.55223880597,366.268656716418,1,0.771369397863054
102,3,1,90,7,26,360.298507462686,421.194029850746,804.477611940299,836.716417910447,2,0.595205713954783
102,3,1,91,46,29,800.89552238806,765.074626865672,750.746268656717,745.970149253732,2,0.932925194711061
102,3,1,92,36,18,714.925373134329,674.328358208955,650.44776119403,731.641791044776,2,0.876935304783728
102,3,1,93,60,48,650.44776119403,671.940298507463,747.164179104478,681.492537313433,1,1.02194952686841
102,3,1,94,12,19,449.850746268657,500,800.89552238806,867.26368159204,2,0.760609067236146
102,3,1,95,57,8,804.477611940299,803.283582089552,378.20895522388,480.89552238806,1,0.903407996495844
102,3,1,96,17,58,707.761194029851,657.611940298508,911.940298507462,910.746268656715,2,0.705787912597771
102,3,1,97,26,18,804.477611940299,836.716417910447,650.44776119403,731.641791044776,2,0.927331145366225
102,3,1,98,7,36,360.298507462686,421.194029850746,714.925373134329,674.328358208955,1,0.877319017871741
102,3,1,99,48,42,747.164179104478,681.492537313433,349.55223880597,366.268656716418,1,0.913454898694908
102,3,1,100,24,60,790.149253731343,757.910447761194,650.44776119403,671.940298507463,1,0.672139514106675
102,3,1,101,17,19,707.761194029851,657.611940298508,800.89552238806,867.26368159204,2,0.847982691870129
102,3,1,102,58,8,911.940298507462,910.746268656715,378.20895522388,480.89552238806,1,0.813488309378045
102,3,1,103,46,12,800.89552238806,765.074626865672,449.850746268657,500,1,0.837389876905945
102,3,1,104,29,57,750.746268656717,745.970149253732,804.477611940299,803.283582089552,2,0.836372712657067
102,3,1,105,17,24,707.761194029851,657.611940298508,790.149253731343,757.910447761194,2,0.773499076701228
102,3,1,106,42,18,349.55223880597,366.268656716418,650.44776119403,731.641791044776,2,0.688584754129806
102,3,1,107,36,58,714.925373134329,674.328358208955,911.940298507462,910.746268656715,2,0.771865688853723
102,3,1,108,57,48,804.477611940299,803.283582089552,747.164179104478,681.492537313433,1,0.727984457450475
102,3,1,109,29,19,750.746268656717,745.970149253732,800.89552238806,867.26368159204,2,0.703194657714448
102,3,1,110,46,60,800.89552238806,765.074626865672,650.44776119403,671.940298507463,2,0.729746364488165
102,3,1,111,7,8,360.298507462686,421.194029850746,378.20895522388,480.89552238806,1,0.804861782753505
102,3,1,112,12,26,449.850746268657,500,804.477611940299,836.716417910447,2,0.645337519906207
102,3,1,113,57,18,804.477611940299,803.283582089552,650.44776119403,731.641791044776,2,0.695904769358094
102,3,1,114,24,8,790.149253731343,757.910447761194,378.20895522388,480.89552238806,1,0.669517415289192
102,3,1,115,7,12,360.298507462686,421.194029850746,449.850746268657,500,2,0.976491582219751
102,3,1,116,60,58,650.44776119403,671.940298507463,911.940298507462,910.746268656715,2,0.761381075815734
102,3,1,117,29,42,750.746268656717,745.970149253732,349.55223880597,366.268656716418,1,0.723261656897193
102,3,1,118,36,19,714.925373134329,674.328358208955,800.89552238806,867.26368159204,2,0.687391300069066
102,3,1,119,17,26,707.761194029851,657.611940298508,804.477611940299,836.716417910447,2,0.609664665774289
102,3,1,120,46,48,800.89552238806,765.074626865672,747.164179104478,681.492537313433,1,0.820645369151862
103,1,1,1,42,54,399.701492537313,266.467661691542,500,535.820895522388,2,3.69503702622933
103,1,1,2,16,55,539.402985074627,425.970149253731,0,0,1,2.27299256083279
103,1,1,3,21,15,693.432835820896,691.044776119403,302.985074626866,227.761194029851,1,1.47361683380223
103,1,1,4,36,13,603.880597014925,454.626865671642,292.238805970149,351.940298507463,1,1.32374339369017
103,1,1,5,41,10,81.641791044776,54.4278606965173,374.626865671642,373.432835820895,2,1.68616241568634
103,1,1,6,31,29,457.014925373134,449.850746268657,944.179104477611,882.089552238805,2,1.22959571341744
103,1,1,7,18,27,485.671641791045,435.522388059701,707.761194029851,588.358208955224,2,3.09643014335052
103,1,1,8,11,6,761.492537313433,593.134328358209,732.835820895523,667.164179104478,2,1.73918813274213
103,1,1,9,13,27,292.238805970149,351.940298507463,707.761194029851,588.358208955224,2,1.35948661443945
103,1,1,10,36,54,603.880597014925,454.626865671642,500,535.820895522388,1,1.92790220891402
103,1,1,11,21,6,693.432835820896,691.044776119403,732.835820895523,667.164179104478,1,2.27215362724382
103,1,1,12,15,42,302.985074626866,227.761194029851,399.701492537313,266.467661691542,1,1.59979069671135
103,1,1,13,29,10,944.179104477611,882.089552238805,374.626865671642,373.432835820895,1,2.0416787490758
103,1,1,14,16,11,539.402985074627,425.970149253731,761.492537313433,593.134328358209,1,1.71613684552904
103,1,1,15,41,18,81.641791044776,54.4278606965173,485.671641791045,435.522388059701,2,1.61224863869757
103,1,1,16,55,31,0,0,457.014925373134,449.850746268657,2,1.99738159369008
103,1,1,17,16,36,539.402985074627,425.970149253731,603.880597014925,454.626865671642,2,1.43388094843249
103,1,1,18,21,18,693.432835820896,691.044776119403,485.671641791045,435.522388059701,1,0.813553381047313
103,1,1,19,27,54,707.761194029851,588.358208955224,500,535.820895522388,1,3.14842592989589
103,1,1,20,11,31,761.492537313433,593.134328358209,457.014925373134,449.850746268657,2,1.75602977822382
103,1,1,21,6,42,732.835820895523,667.164179104478,399.701492537313,266.467661691542,1,1.25274050949702
103,1,1,22,15,10,302.985074626866,227.761194029851,374.626865671642,373.432835820895,1,2.24987846208023
103,1,1,23,55,13,0,0,292.238805970149,351.940298507463,2,1.37220444656487
103,1,1,24,41,29,81.641791044776,54.4278606965173,944.179104477611,882.089552238805,2,0.718522391849547
103,1,1,25,36,10,603.880597014925,454.626865671642,374.626865671642,373.432835820895,1,0.681424172131301
103,1,1,26,55,42,0,0,399.701492537313,266.467661691542,2,2.16669539390023
103,1,1,27,31,6,457.014925373134,449.850746268657,732.835820895523,667.164179104478,1,1.44540898126979
103,1,1,28,15,18,302.985074626866,227.761194029851,485.671641791045,435.522388059701,2,2.79743024662821
103,1,1,29,21,29,693.432835820896,691.044776119403,944.179104477611,882.089552238805,2,0.886246600606682
103,1,1,30,11,27,761.492537313433,593.134328358209,707.761194029851,588.358208955224,2,1.05334394356214
103,1,1,31,13,54,292.238805970149,351.940298507463,500,535.820895522388,2,1.1816123309145
103,1,1,32,41,27,81.641791044776,54.4278606965173,707.761194029851,588.358208955224,2,1.30045822859756
103,1,1,33,16,29,539.402985074627,425.970149253731,944.179104477611,882.089552238805,2,0.56046301578499
103,1,1,34,55,18,0,0,485.671641791045,435.522388059701,2,0.953513149628634
103,1,1,35,36,11,603.880597014925,454.626865671642,761.492537313433,593.134328358209,1,1.28787840665791
103,1,1,36,21,10,693.432835820896,691.044776119403,374.626865671642,373.432835820895,1,1.20479721908487
103,1,1,37,13,42,292.238805970149,351.940298507463,399.701492537313,266.467661691542,2,2.32096558636113
103,1,1,38,15,54,302.985074626866,227.761194029851,500,535.820895522388,2,1.49938267008292
103,1,1,39,16,31,539.402985074627,425.970149253731,457.014925373134,449.850746268657,1,1.22321176975493
103,1,1,40,41,6,81.641791044776,54.4278606965173,732.835820895523,667.164179104478,2,1.09068198094792
103,2,0,41,58,30,335.223880597015,428.358208955224,299.402985074627,318.507462686567,1,6.57741395140692
103,2,0,42,47,25,310.149253731343,332.835820895522,568.059701492537,581.194029850746,2,1.36450806851826
103,2,0,43,52,4,686.268656716418,717.313432835821,975.671641791044,960.398009950248,2,7.19814887469511
103,2,0,44,5,7,632.537313432836,552.537313432836,517.910447761194,399.701492537313,1,3.65538536863278
103,2,0,45,38,39,639.701492537313,578.805970149254,510.746268656716,476.119402985075,2,3.9197193666605
103,2,0,46,56,45,141.791044776119,132.238805970149,682.686567164179,686.268656716418,2,3.19104925374268
103,2,0,47,37,40,636.119402985075,554.925373134328,975.671641791044,769.353233830845,2,2.04233978745469
103,2,0,48,34,59,281.492537313433,246.865671641791,274.328358208955,263.582089552239,2,5.74493709878152
103,2,0,49,47,45,310.149253731343,332.835820895522,682.686567164179,686.268656716418,2,4.78256400628561
103,2,0,50,34,40,281.492537313433,246.865671641791,975.671641791044,769.353233830845,1,2.88653241756765
103,2,0,51,5,38,632.537313432836,552.537313432836,639.701492537313,578.805970149254,2,6.41423914540428
103,2,0,52,37,30,636.119402985075,554.925373134328,299.402985074627,318.507462686567,2,1.59244410848441
103,2,0,53,4,7,975.671641791044,960.398009950248,517.910447761194,399.701492537313,1,4.22142696330957
103,2,0,54,56,52,141.791044776119,132.238805970149,686.268656716418,717.313432835821,2,1.01842341249721
103,2,0,55,39,59,510.746268656716,476.119402985075,274.328358208955,263.582089552239,1,1.59506031736237
103,2,0,56,25,58,568.059701492537,581.194029850746,335.223880597015,428.358208955224,1,1.58293266107103
103,2,0,57,37,38,636.119402985075,554.925373134328,639.701492537313,578.805970149254,2,1.08343429329761
103,2,0,58,56,7,141.791044776119,132.238805970149,517.910447761194,399.701492537313,2,1.14535275663729
103,2,0,59,52,39,686.268656716418,717.313432835821,510.746268656716,476.119402985075,2,2.51761057225303
103,2,0,60,34,30,281.492537313433,246.865671641791,299.402985074627,318.507462686567,2,2.03926575333753
103,2,0,61,47,58,310.149253731343,332.835820895522,335.223880597015,428.358208955224,2,0.989154262431839
103,2,0,62,4,45,975.671641791044,960.398009950248,682.686567164179,686.268656716418,2,1.20816355802162
103,2,0,63,5,40,632.537313432836,552.537313432836,975.671641791044,769.353233830845,2,0.661631716242482
103,2,0,64,25,59,568.059701492537,581.194029850746,274.328358208955,263.582089552239,1,2.2066196451251
103,2,0,65,45,39,682.686567164179,686.268656716418,510.746268656716,476.119402985075,2,0.591921742037812
103,2,0,66,47,40,310.149253731343,332.835820895522,975.671641791044,769.353233830845,2,0.541551964673999
103,2,0,67,25,38,568.059701492537,581.194029850746,639.701492537313,578.805970149254,2,1.30723999946167
103,2,0,68,58,59,335.223880597015,428.358208955224,274.328358208955,263.582089552239,1,1.00432478852235
103,2,0,69,37,4,636.119402985075,554.925373134328,975.671641791044,960.398009950248,2,0.776608773945554
103,2,0,70,30,7,299.402985074627,318.507462686567,517.910447761194,399.701492537313,2,1.15577442227368
103,2,0,71,34,52,281.492537313433,246.865671641791,686.268656716418,717.313432835821,2,2.34502865166723
103,2,0,72,56,5,141.791044776119,132.238805970149,632.537313432836,552.537313432836,2,0.638186937932915
103,2,0,73,47,52,310.149253731343,332.835820895522,686.268656716418,717.313432835821,2,0.622454367439786
103,2,0,74,4,39,975.671641791044,960.398009950248,510.746268656716,476.119402985075,2,0.477434883709066
103,2,0,75,45,7,682.686567164179,686.268656716418,517.910447761194,399.701492537313,1,1.02482627962854
103,2,0,76,34,5,281.492537313433,246.865671641791,632.537313432836,552.537313432836,2,0.595764622610659
103,2,0,77,56,59,141.791044776119,132.238805970149,274.328358208955,263.582089552239,2,0.846400877022461
103,2,0,78,37,25,636.119402985075,554.925373134328,568.059701492537,581.194029850746,2,0.648835490415877
103,2,0,79,38,30,639.701492537313,578.805970149254,299.402985074627,318.507462686567,2,0.429396427891334
103,2,0,80,58,40,335.223880597015,428.358208955224,975.671641791044,769.353233830845,1,1.23697201649156
103,3,0,81,12,19,374.626865671642,380.597014925373,722.089552238806,695.820895522388,2,4.29538803049036
103,3,0,82,9,44,342.388059701492,344.776119402985,0,0,1,1.93408054006795
103,3,0,83,2,43,1000,945.572139303482,56.5671641791043,175.721393034826,2,7.77661035735764
103,3,0,84,33,20,589.55223880597,588.358208955224,901.194029850745,851.044776119402,2,3.74882410708597
103,3,0,85,46,57,288.65671641791,249.253731343283,363.880597014925,366.268656716418,2,5.85311068919327
103,3,0,86,35,17,489.253731343284,428.358208955224,363.880597014925,387.761194029851,2,1.57545908137035
103,3,0,87,50,24,85.2238805970148,168.557213930348,1000,885.870646766169,2,1.4779996808029
103,3,0,88,1,32,378.20895522388,406.865671641791,714.925373134329,605.074626865672,2,8.11387573607499
103,3,0,89,2,33,1000,945.572139303482,589.55223880597,588.358208955224,2,1.43272544769934
103,3,0,90,1,24,378.20895522388,406.865671641791,1000,885.870646766169,2,1.27833369602376
103,3,0,91,17,43,363.880597014925,387.761194029851,56.5671641791043,175.721393034826,1,3.67736415279796
103,3,0,92,46,32,288.65671641791,249.253731343283,714.925373134329,605.074626865672,2,0.813972263202231
103,3,0,93,12,35,374.626865671642,380.597014925373,489.253731343284,428.358208955224,1,6.7320183515294
103,3,0,94,50,20,85.2238805970148,168.557213930348,901.194029850745,851.044776119402,2,3.85642419997203
103,3,0,95,9,57,342.388059701492,344.776119402985,363.880597014925,366.268656716418,2,2.65848925153659
103,3,0,96,44,19,0,0,722.089552238806,695.820895522388,2,1.57839755752684
103,3,0,97,35,1,489.253731343284,428.358208955224,378.20895522388,406.865671641791,1,2.93804122441907
103,3,0,98,33,43,589.55223880597,588.358208955224,56.5671641791043,175.721393034826,1,1.70845228188045
103,3,0,99,12,9,374.626865671642,380.597014925373,342.388059701492,344.776119402985,2,2.50125437590759
103,3,0,100,50,19,85.2238805970148,168.557213930348,722.089552238806,695.820895522388,2,1.3773415932028
103,3,0,101,2,20,1000,945.572139303482,901.194029850745,851.044776119402,2,6.23828082937507
103,3,0,102,44,32,0,0,714.925373134329,605.074626865672,2,1.45697891694908
103,3,0,103,24,57,1000,885.870646766169,363.880597014925,366.268656716418,1,0.529934011885416
103,3,0,104,46,17,288.65671641791,249.253731343283,363.880597014925,387.761194029851,1,4.77343529117388
103,3,0,105,9,43,342.388059701492,344.776119402985,56.5671641791043,175.721393034826,1,1.40401490732984
103,3,0,106,17,57,363.880597014925,387.761194029851,363.880597014925,366.268656716418,2,5.71521142669553
103,3,0,107,12,44,374.626865671642,380.597014925373,0,0,1,1.15498176816982
103,3,0,108,50,33,85.2238805970148,168.557213930348,589.55223880597,588.358208955224,2,3.90431009878012
103,3,0,109,35,24,489.253731343284,428.358208955224,1000,885.870646766169,2,0.60122748354479
103,3,0,110,46,19,288.65671641791,249.253731343283,722.089552238806,695.820895522388,2,2.42194837319221
103,3,0,111,1,2,378.20895522388,406.865671641791,1000,945.572139303482,1,2.25947737722163
103,3,0,112,32,20,714.925373134329,605.074626865672,901.194029850745,851.044776119402,1,2.65210813369049
103,3,0,113,17,33,363.880597014925,387.761194029851,589.55223880597,588.358208955224,2,3.21423440979015
103,3,0,114,2,44,1000,945.572139303482,0,0,1,1.357167554017
103,3,0,115,35,20,489.253731343284,428.358208955224,901.194029850745,851.044776119402,1,7.77437085991369
103,3,0,116,12,32,374.626865671642,380.597014925373,714.925373134329,605.074626865672,2,1.09148338833984
103,3,0,117,46,43,288.65671641791,249.253731343283,56.5671641791043,175.721393034826,2,6.06893891800246
103,3,0,118,1,19,378.20895522388,406.865671641791,722.089552238806,695.820895522388,2,2.94753782454609
103,3,0,119,50,57,85.2238805970148,168.557213930348,363.880597014925,366.268656716418,1,4.9714250124598
103,3,0,120,9,24,342.388059701492,344.776119402985,1000,885.870646766169,2,1.32582605087737
104,1,0,1,3,32,57.3134328358209,83.0845771144278,424.776119402985,509.55223880597,3,10.0042663053991
104,1,0,2,27,30,35.0746268656715,30.0497512437809,42.2388059701491,58.7064676616913,1,4.05912743040062
104,1,0,3,45,9,707.761194029851,712.537313432836,38.6567164179103,120.796019900497,1,4.82510001316041
104,1,0,4,16,13,754.328358208955,741.194029850746,521.492537313433,387.761194029851,2,2.57171296045635
104,1,0,5,15,41,772.23880597015,760.298507462687,60.1492537313431,46.7661691542287,2,1.96713350831487
104,1,0,6,49,54,127.462686567164,101.194029850746,250,166.666666666667,2,2.20703805917401
104,1,0,7,43,6,42.2388059701491,58.7064676616913,159.701492537313,139.402985074627,1,2.792439829047
104,1,0,8,1,12,134.626865671641,129.850746268656,861.791044776119,812.835820895522,1,0.859314941430057
104,1,0,9,15,54,772.23880597015,760.298507462687,250,166.666666666667,2,0.762052957134074
104,1,0,10,43,41,42.2388059701491,58.7064676616913,60.1492537313431,46.7661691542287,2,2.43290892293589
104,1,0,11,1,6,134.626865671641,129.850746268656,159.701492537313,139.402985074627,2,2.59473845927278
104,1,0,12,13,30,521.492537313433,387.761194029851,42.2388059701491,58.7064676616913,1,1.43783772019742
104,1,0,13,49,45,127.462686567164,101.194029850746,707.761194029851,712.537313432836,1,2.12539724990529
104,1,0,14,16,32,754.328358208955,741.194029850746,424.776119402985,509.55223880597,1,1.26752823405877
104,1,0,15,27,9,35.0746268656715,30.0497512437809,38.6567164179103,120.796019900497,2,1.17001126725881
104,1,0,16,12,3,861.791044776119,812.835820895522,57.3134328358209,83.0845771144278,2,1.14753582503727
104,1,0,17,45,1,707.761194029851,712.537313432836,134.626865671641,129.850746268656,2,2.83173779952631
104,1,0,18,16,15,754.328358208955,741.194029850746,772.23880597015,760.298507462687,1,0.698273961581435
104,1,0,19,30,9,42.2388059701491,58.7064676616913,38.6567164179103,120.796019900497,2,1.12378342066768
104,1,0,20,13,54,521.492537313433,387.761194029851,250,166.666666666667,2,0.851345793595101
104,1,0,21,12,41,861.791044776119,812.835820895522,60.1492537313431,46.7661691542287,2,1.71581356416755
104,1,0,22,6,3,159.701492537313,139.402985074627,57.3134328358209,83.0845771144278,2,0.781874977668849
104,1,0,23,49,43,127.462686567164,101.194029850746,42.2388059701491,58.7064676616913,1,1.50297179769404
104,1,0,24,27,32,35.0746268656715,30.0497512437809,424.776119402985,509.55223880597,2,0.705929014346111
104,1,0,25,49,16,127.462686567164,101.194029850746,754.328358208955,741.194029850746,1,0.535461393237711
104,1,0,26,45,54,707.761194029851,712.537313432836,250,166.666666666667,2,0.643822109892426
104,1,0,27,32,9,424.776119402985,509.55223880597,38.6567164179103,120.796019900497,2,2.42848261607287
104,1,0,28,27,3,35.0746268656715,30.0497512437809,57.3134328358209,83.0845771144278,2,1.24030421886528
104,1,0,29,13,12,521.492537313433,387.761194029851,861.791044776119,812.835820895522,1,2.70015165608675
104,1,0,30,1,41,134.626865671641,129.850746268656,60.1492537313431,46.7661691542287,2,1.71711508374938
104,1,0,31,43,15,42.2388059701491,58.7064676616913,772.23880597015,760.298507462687,1,0.718174170635393
104,1,0,32,30,3,42.2388059701491,58.7064676616913,57.3134328358209,83.0845771144278,2,1.01819916182831
104,1,0,33,45,27,707.761194029851,712.537313432836,35.0746268656715,30.0497512437809,2,1.85369430997343
104,1,0,34,15,12,772.23880597015,760.298507462687,861.791044776119,812.835820895522,2,2.43929536634823
104,1,0,35,16,54,754.328358208955,741.194029850746,250,166.666666666667,2,0.706160053388885
104,1,0,36,1,9,134.626865671641,129.850746268656,38.6567164179103,120.796019900497,2,0.86574957875564
104,1,0,37,6,32,159.701492537313,139.402985074627,424.776119402985,509.55223880597,2,0.737480773708739
104,1,0,38,13,43,521.492537313433,387.761194029851,42.2388059701491,58.7064676616913,2,1.02582214132235
104,1,0,39,41,6,60.1492537313431,46.7661691542287,159.701492537313,139.402985074627,1,0.664618669112315
104,1,0,40,49,30,127.462686567164,101.194029850746,42.2388059701491,58.7064676616913,1,0.792497435699261
104,2,1,41,17,55,418.358208955224,505.273631840796,0,20.9950248756218,1,3.18448027265185
104,2,1,42,46,20,84.4776119402982,74.9253731343281,335.223880597015,318.507462686567,2,1.45171861329618
104,2,1,43,28,60,127.462686567164,122.686567164179,35.0746268656715,125.572139303482,1,4.80675507823616
104,2,1,44,51,44,310.149253731343,301.791044776119,20.7462686567163,41.9900497512436,1,1.80795620848221
104,2,1,45,25,14,188.358208955224,160.895522388059,707.761194029851,734.029850746269,2,0.947687916486757
104,2,1,46,59,5,60.1492537313431,77.8109452736316,31.4925373134327,49.1542288557212,1,2.34911599719453
104,2,1,47,24,10,217.014925373134,158.507462686567,84.4776119402982,84.4776119402982,1,2.51440357583851
104,2,1,48,29,23,113.134328358209,113.134328358209,77.3134328358206,74.9253731343281,2,1.97483418912816
104,2,1,49,17,5,418.358208955224,505.273631840796,31.4925373134327,49.1542288557212,1,1.23703606406707
104,2,1,50,10,23,84.4776119402982,84.4776119402982,77.3134328358206,74.9253731343281,2,1.8138526700659
104,2,1,51,51,25,310.149253731343,301.791044776119,188.358208955224,160.895522388059,1,0.953844269313777
104,2,1,52,20,60,335.223880597015,318.507462686567,35.0746268656715,125.572139303482,1,0.992198476156773
104,2,1,53,28,55,127.462686567164,122.686567164179,0,20.9950248756218,1,2.36045808167364
104,2,1,54,29,14,113.134328358209,113.134328358209,707.761194029851,734.029850746269,2,0.873117868992267
104,2,1,55,46,44,84.4776119402982,74.9253731343281,20.7462686567163,41.9900497512436,1,3.11293441385533
104,2,1,56,24,59,217.014925373134,158.507462686567,60.1492537313431,77.8109452736316,1,4.69897711916929
104,2,1,57,44,55,20.7462686567163,41.9900497512436,0,20.9950248756218,2,8.88452552346644
104,2,1,58,24,20,217.014925373134,158.507462686567,335.223880597015,318.507462686567,2,1.49931557006676
104,2,1,59,46,23,84.4776119402982,74.9253731343281,77.3134328358206,74.9253731343281,2,1.63713045417535
104,2,1,60,10,14,84.4776119402982,84.4776119402982,707.761194029851,734.029850746269,2,0.99956535822821
104,2,1,61,29,28,113.134328358209,113.134328358209,127.462686567164,122.686567164179,2,4.61801499405192
104,2,1,62,59,25,60.1492537313431,77.8109452736316,188.358208955224,160.895522388059,1,2.85177504545027
104,2,1,63,17,51,418.358208955224,505.273631840796,310.149253731343,301.791044776119,1,1.36761651497
104,2,1,64,5,60,31.4925373134327,49.1542288557212,35.0746268656715,125.572139303482,2,7.88517903619868
104,2,1,65,24,55,217.014925373134,158.507462686567,0,20.9950248756218,1,1.66676326974812
104,2,1,66,59,28,60.1492537313431,77.8109452736316,127.462686567164,122.686567164179,2,2.70278904114093
104,2,1,67,51,10,310.149253731343,301.791044776119,84.4776119402982,84.4776119402982,1,1.29771773011998
104,2,1,68,23,60,77.3134328358206,74.9253731343281,35.0746268656715,125.572139303482,1,2.08583177460605
104,2,1,69,46,25,84.4776119402982,74.9253731343281,188.358208955224,160.895522388059,2,2.54998747530772
104,2,1,70,44,5,20.7462686567163,41.9900497512436,31.4925373134327,49.1542288557212,2,3.13709479022509
104,2,1,71,20,29,335.223880597015,318.507462686567,113.134328358209,113.134328358209,1,0.880399477393439
104,2,1,72,17,24,418.358208955224,505.273631840796,217.014925373134,158.507462686567,1,0.885352343353588
104,2,1,73,55,60,0,20.9950248756218,35.0746268656715,125.572139303482,2,1.37955258267903
104,2,1,74,23,25,77.3134328358206,74.9253731343281,188.358208955224,160.895522388059,1,1.64237175658855
104,2,1,75,28,14,127.462686567164,122.686567164179,707.761194029851,734.029850746269,2,1.17203829797108
104,2,1,76,20,10,335.223880597015,318.507462686567,84.4776119402982,84.4776119402982,1,0.885533348091485
104,2,1,77,51,29,310.149253731343,301.791044776119,113.134328358209,113.134328358209,1,1.07452102418392
104,2,1,78,46,5,84.4776119402982,74.9253731343281,31.4925373134327,49.1542288557212,2,6.01879082967025
104,2,1,79,17,44,418.358208955224,505.273631840796,20.7462686567163,41.9900497512436,1,1.03831424805139
104,2,1,80,59,14,60.1492537313431,77.8109452736316,707.761194029851,734.029850746269,2,0.93421030963691
104,3,0,81,18,33,1000,1000,625.373134328358,643.283582089552,1,2.65199223189666
104,3,0,82,8,57,160.44776119403,108.855721393035,1000,1000,2,1.0361470571479
104,3,0,83,56,4,1000,1000,95.2238805970146,74.9253731343281,1,2.41698829505185
104,3,0,84,48,36,38.6567164179103,61.0945273631839,922.686567164178,882.089552238805,2,1.03750322652922
104,3,0,85,50,40,24.3283582089551,46.7661691542287,797.313432835821,769.850746268657,1,1.05237924172616
104,3,0,86,21,42,88.059701492537,58.7064676616913,199.10447761194,168.059701492537,2,0.678669077091399
104,3,0,87,58,53,815.223880597015,810.44776119403,1000,1000,2,0.808944288206476
104,3,0,88,38,7,435.522388059701,490.44776119403,98.8059701492534,98.8059701492534,2,0.66470469574233
104,3,0,89,42,48,199.10447761194,168.059701492537,38.6567164179103,61.0945273631839,2,0.552603803495003
104,3,0,90,58,36,815.223880597015,810.44776119403,922.686567164178,882.089552238805,1,0.665288429268912
104,3,0,91,7,8,98.8059701492534,98.8059701492534,160.44776119403,108.855721393035,2,0.599205526672449
104,3,0,92,33,50,625.373134328358,643.283582089552,24.3283582089551,46.7661691542287,1,0.610820527197575
104,3,0,93,21,56,88.059701492537,58.7064676616913,1000,1000,2,0.573705352035176
104,3,0,94,18,38,1000,1000,435.522388059701,490.44776119403,1,0.642237676573131
104,3,0,95,40,53,797.313432835821,769.850746268657,1000,1000,2,0.452783125150745
104,3,0,96,57,4,1000,1000,95.2238805970146,74.9253731343281,2,0.635424267662529
104,3,0,97,42,53,199.10447761194,168.059701492537,1000,1000,2,0.818609568344982
104,3,0,98,21,8,88.059701492537,58.7064676616913,160.44776119403,108.855721393035,2,0.751418631994966
104,3,0,99,38,33,435.522388059701,490.44776119403,625.373134328358,643.283582089552,1,0.651029936027044
104,3,0,100,18,48,1000,1000,38.6567164179103,61.0945273631839,2,0.508537597603208
104,3,0,101,36,57,922.686567164178,882.089552238805,1000,1000,2,0.580573522231134
104,3,0,102,58,50,815.223880597015,810.44776119403,24.3283582089551,46.7661691542287,1,0.584945206785051
104,3,0,103,7,4,98.8059701492534,98.8059701492534,95.2238805970146,74.9253731343281,2,0.467158797324373
104,3,0,104,56,40,1000,1000,797.313432835821,769.850746268657,1,0.550197234497318
104,3,0,105,36,4,922.686567164178,882.089552238805,95.2238805970146,74.9253731343281,2,0.461881768344028
104,3,0,106,50,57,24.3283582089551,46.7661691542287,1000,1000,2,0.528931052329426
104,3,0,107,38,56,435.522388059701,490.44776119403,1000,1000,2,0.958307083184991
104,3,0,108,21,53,88.059701492537,58.7064676616913,1000,1000,2,0.715937896964533
104,3,0,109,42,40,199.10447761194,168.059701492537,797.313432835821,769.850746268657,2,0.537805196374393
104,3,0,110,33,8,625.373134328358,643.283582089552,160.44776119403,108.855721393035,2,0.561164912413005
104,3,0,111,18,58,1000,1000,815.223880597015,810.44776119403,1,0.581062848852525
104,3,0,112,50,8,24.3283582089551,46.7661691542287,160.44776119403,108.855721393035,2,0.548471274050826
104,3,0,113,48,4,38.6567164179103,61.0945273631839,95.2238805970146,74.9253731343281,2,0.531142686102612
104,3,0,114,42,57,199.10447761194,168.059701492537,1000,1000,2,1.40248432979752
104,3,0,115,18,21,1000,1000,88.059701492537,58.7064676616913,1,0.639361276935233
104,3,0,116,33,7,625.373134328358,643.283582089552,98.8059701492534,98.8059701492534,2,0.489696350201484
104,3,0,117,36,40,922.686567164178,882.089552238805,797.313432835821,769.850746268657,2,0.928047109930048
104,3,0,118,38,58,435.522388059701,490.44776119403,815.223880597015,810.44776119403,1,2.58122375892162
104,3,0,119,7,53,98.8059701492534,98.8059701492534,1000,1000,2,1.31292527144251
104,3,0,120,56,48,1000,1000,38.6567164179103,61.0945273631839,2,0.601378588515217
105,1,1,1,14,48,191.940298507462,222.985074626865,578.805970149254,600.298507462687,2,3.04543533705692
105,1,1,2,1,29,697.014925373134,726.865671641791,0,0,1,1.92168551578288
105,1,1,3,47,3,1000,1000,306.567164179104,244.477611940298,1,1.25374742329586
105,1,1,4,5,8,943.432835820895,917.412935323383,768.656716417911,755.522388059702,1,1.57681828152272
105,1,1,5,37,19,0,0,876.119402985074,908.358208955223,2,1.04234187505062
105,1,1,6,39,40,424.776119402985,385.373134328358,729.253731343284,698.208955223881,2,1.07361370272884
105,1,1,7,6,52,142.537313432836,206.766169154229,91.6417910447758,75.4228855721391,1,3.03526018602861
105,1,1,8,12,23,159.701492537313,225.373134328358,632.537313432836,652.835820895522,2,1.24640098473719
105,1,1,9,6,3,142.537313432836,206.766169154229,306.567164179104,244.477611940298,2,1.36375150905769
105,1,1,10,5,52,943.432835820895,917.412935323383,91.6417910447758,75.4228855721391,1,0.779090071420796
105,1,1,11,48,29,578.805970149254,600.298507462687,0,0,1,1.3222567584744
105,1,1,12,47,1,1000,1000,697.014925373134,726.865671641791,1,0.801634734138133
105,1,1,13,14,8,191.940298507462,222.985074626865,768.656716417911,755.522388059702,2,1.1020979216355
105,1,1,14,39,19,424.776119402985,385.373134328358,876.119402985074,908.358208955223,2,0.828342873814108
105,1,1,15,40,12,729.253731343284,698.208955223881,159.701492537313,225.373134328358,1,2.02158719498584
105,1,1,16,37,23,0,0,632.537313432836,652.835820895522,2,0.979314423897449
105,1,1,17,47,5,1000,1000,943.432835820895,917.412935323383,1,0.737280407518483
105,1,1,18,14,23,191.940298507462,222.985074626865,632.537313432836,652.835820895522,2,1.44439234173478
105,1,1,19,37,40,0,0,729.253731343284,698.208955223881,2,1.45145489860624
105,1,1,20,6,12,142.537313432836,206.766169154229,159.701492537313,225.373134328358,2,1.07156820716045
105,1,1,21,48,52,578.805970149254,600.298507462687,91.6417910447758,75.4228855721391,1,0.793985187323415
105,1,1,22,3,29,306.567164179104,244.477611940298,0,0,1,2.06353403593312
105,1,1,23,39,8,424.776119402985,385.373134328358,768.656716417911,755.522388059702,2,0.809277963273416
105,1,1,24,19,1,876.119402985074,908.358208955223,697.014925373134,726.865671641791,1,2.71516174386306
105,1,1,25,5,12,943.432835820895,917.412935323383,159.701492537313,225.373134328358,1,0.906377968627567
105,1,1,26,14,1,191.940298507462,222.985074626865,697.014925373134,726.865671641791,2,1.32979913301278
105,1,1,27,37,3,0,0,306.567164179104,244.477611940298,2,0.734479733351691
105,1,1,28,6,39,142.537313432836,206.766169154229,424.776119402985,385.373134328358,2,1.97971829233393
105,1,1,29,47,23,1000,1000,632.537313432836,652.835820895522,1,1.0189082502875
105,1,1,30,48,40,578.805970149254,600.298507462687,729.253731343284,698.208955223881,1,0.888545846695706
105,1,1,31,8,29,768.656716417911,755.522388059702,0,0,1,1.05957266843689
105,1,1,32,12,52,159.701492537313,225.373134328358,91.6417910447758,75.4228855721391,1,1.88721270075621
105,1,1,33,48,23,578.805970149254,600.298507462687,632.537313432836,652.835820895522,1,0.971568592300173
105,1,1,34,37,29,0,0,0,0,2,3.10157095610703
105,1,1,35,47,8,1000,1000,768.656716417911,755.522388059702,1,1.10817180059712
105,1,1,36,14,39,191.940298507462,222.985074626865,424.776119402985,385.373134328358,2,1.02672546130816
105,1,1,37,1,3,697.014925373134,726.865671641791,306.567164179104,244.477611940298,1,1.0956750371588
105,1,1,38,6,19,142.537313432836,206.766169154229,876.119402985074,908.358208955223,2,0.787913103438768
105,1,1,39,40,52,729.253731343284,698.208955223881,91.6417910447758,75.4228855721391,1,0.905118255835987
105,1,1,40,19,5,876.119402985074,908.358208955223,943.432835820895,917.412935323383,1,0.73147390862141
105,2,0,41,44,10,611.044776119403,621.79104477612,131.044776119403,129.850746268656,1,2.87459923487222
105,2,0,42,43,54,808.059701492537,757.910447761194,854.626865671641,839.10447761194,2,2.64476771259069
105,2,0,43,11,24,174.029850746268,125.074626865671,0,35.323383084577,1,3.49679250428198
105,2,0,44,59,33,722.089552238806,700.597014925373,822.388059701492,762.686567164179,2,1.08913838662374
105,2,0,45,16,51,883.283582089551,922.189054726368,793.731343283582,779.402985074627,2,0.85005255474789
105,2,0,46,36,22,700.597014925373,686.268656716418,102.388059701492,89.2537313432833,1,1.39647889109256
105,2,0,47,58,46,989.999999999999,993.333333333333,879.701492537313,919.800995024875,1,4.53757140949347
105,2,0,48,34,56,632.537313432836,609.850746268657,657.611940298508,638.507462686567,2,2.06873904720669
105,2,0,49,10,46,131.044776119403,129.850746268656,879.701492537313,919.800995024875,2,1.21159766976052
105,2,0,50,43,11,808.059701492537,757.910447761194,174.029850746268,125.074626865671,2,1.31911445052356
105,2,0,51,36,16,700.597014925373,686.268656716418,883.283582089551,922.189054726368,1,1.65041968248988
105,2,0,52,22,33,102.388059701492,89.2537313432833,822.388059701492,762.686567164179,2,5.57638437598507
105,2,0,53,58,34,989.999999999999,993.333333333333,632.537313432836,609.850746268657,1,1.08033631416947
105,2,0,54,59,56,722.089552238806,700.597014925373,657.611940298508,638.507462686567,1,1.42825188139614
105,2,0,55,44,54,611.044776119403,621.79104477612,854.626865671641,839.10447761194,1,0.87987530740611
105,2,0,56,24,51,0,35.323383084577,793.731343283582,779.402985074627,2,0.878968593133322
105,2,0,57,43,59,808.059701492537,757.910447761194,722.089552238806,700.597014925373,2,1.714047450203
105,2,0,58,36,34,700.597014925373,686.268656716418,632.537313432836,609.850746268657,1,1.05608919677979
105,2,0,59,44,24,611.044776119403,621.79104477612,0,35.323383084577,1,1.90638872937234
105,2,0,60,22,10,102.388059701492,89.2537313432833,131.044776119403,129.850746268656,2,0.982957382333552
105,2,0,61,33,46,822.388059701492,762.686567164179,879.701492537313,919.800995024875,2,0.902993506704661
105,2,0,62,16,54,883.283582089551,922.189054726368,854.626865671641,839.10447761194,1,0.925334824232777
105,2,0,63,11,51,174.029850746268,125.074626865671,793.731343283582,779.402985074627,2,0.661382185060575
105,2,0,64,58,56,989.999999999999,993.333333333333,657.611940298508,638.507462686567,1,0.738295738656234
105,2,0,65,16,59,883.283582089551,922.189054726368,722.089552238806,700.597014925373,2,1.31053090961359
105,2,0,66,56,46,657.611940298508,638.507462686567,879.701492537313,919.800995024875,2,0.730879556675063
105,2,0,67,43,22,808.059701492537,757.910447761194,102.388059701492,89.2537313432833,2,1.14204776247061
105,2,0,68,54,33,854.626865671641,839.10447761194,822.388059701492,762.686567164179,2,0.782289181577653
105,2,0,69,44,34,611.044776119403,621.79104477612,632.537313432836,609.850746268657,1,0.799421639028878
105,2,0,70,36,51,700.597014925373,686.268656716418,793.731343283582,779.402985074627,2,0.622853371205565
105,2,0,71,58,24,989.999999999999,993.333333333333,0,35.323383084577,1,0.592839269831529
105,2,0,72,34,46,632.537313432836,609.850746268657,879.701492537313,919.800995024875,2,0.4764706705555
105,2,0,73,16,44,883.283582089551,922.189054726368,611.044776119403,621.79104477612,2,0.622862207548678
105,2,0,74,43,51,808.059701492537,757.910447761194,793.731343283582,779.402985074627,2,0.461791681984323
105,2,0,75,33,56,822.388059701492,762.686567164179,657.611940298508,638.507462686567,1,1.33088656458131
105,2,0,76,58,11,989.999999999999,993.333333333333,174.029850746268,125.074626865671,1,0.565583346688072
105,2,0,77,54,10,854.626865671641,839.10447761194,131.044776119403,129.850746268656,2,0.755554709403441
105,2,0,78,22,24,102.388059701492,89.2537313432833,0,35.323383084577,1,1.61411119642071
105,2,0,79,36,10,700.597014925373,686.268656716418,131.044776119403,129.850746268656,1,2.06527191551686
105,2,0,80,11,59,174.029850746268,125.074626865671,722.089552238806,700.597014925373,2,1.25006942534128
105,3,0,81,60,9,335.223880597015,325.671641791045,156.119402985074,129.850746268656,2,2.20406576756432
105,3,0,82,20,17,929.850746268655,896.41791044776,664.776119402985,681.492537313433,1,0.906407364262122
105,3,0,83,26,57,0,0,0,0,2,0.628811032684098
105,3,0,84,13,21,972.089552238805,950.845771144278,396.119402985075,447.462686567164,2,0.451072616320744
105,3,0,85,41,30,98.8059701492534,125.074626865671,195.522388059701,163.283582089552,1,0.270791534767341
105,3,0,86,28,53,73.7313432835818,86.8656716417907,786.567164179105,743.582089552239,1,0.513963482111649
105,3,0,87,18,49,88.059701492537,96.4179104477609,209.850746268657,227.761194029851,2,0.31601898457302
105,3,0,88,42,4,1000,955.124378109453,989.999999999999,979.502487562188,1,0.298170952703003
105,3,0,89,60,41,335.223880597015,325.671641791045,98.8059701492534,125.074626865671,2,0.285043723730269
105,3,0,90,9,13,156.119402985074,129.850746268656,972.089552238805,950.845771144278,1,0.174571093188206
105,3,0,91,28,30,73.7313432835818,86.8656716417907,195.522388059701,163.283582089552,2,0.370208697164344
105,3,0,92,57,4,0,0,989.999999999999,979.502487562188,1,0.367253777252699
105,3,0,93,42,53,1000,955.124378109453,786.567164179105,743.582089552239,2,1.07451528525962
105,3,0,94,18,17,88.059701492537,96.4179104477609,664.776119402985,681.492537313433,1,1.13940727349291
105,3,0,95,20,21,929.850746268655,896.41791044776,396.119402985075,447.462686567164,2,0.970273469472886
105,3,0,96,49,26,209.850746268657,227.761194029851,0,0,2,0.738952280615194
105,3,0,97,30,13,195.522388059701,163.283582089552,972.089552238805,950.845771144278,1,0.610145435643062
105,3,0,98,18,21,88.059701492537,96.4179104477609,396.119402985075,447.462686567164,2,0.659074008559401
105,3,0,99,41,49,98.8059701492534,125.074626865671,209.850746268657,227.761194029851,1,0.771013642879552
105,3,0,100,9,42,156.119402985074,129.850746268656,1000,955.124378109453,2,0.678840363785639
105,3,0,101,60,20,335.223880597015,325.671641791045,929.850746268655,896.41791044776,2,1.08605951928803
105,3,0,102,26,53,0,0,786.567164179105,743.582089552239,1,1.29198626152174
105,3,0,103,17,4,664.776119402985,681.492537313433,989.999999999999,979.502487562188,2,1.23206991273037
105,3,0,104,28,57,73.7313432835818,86.8656716417907,0,0,2,0.961838172212083
105,3,0,105,9,21,156.119402985074,129.850746268656,396.119402985075,447.462686567164,1,0.641530835393496
105,3,0,106,18,53,88.059701492537,96.4179104477609,786.567164179105,743.582089552239,2,0.479108064067987
105,3,0,107,13,57,972.089552238805,950.845771144278,0,0,2,0.489613985999313
105,3,0,108,17,49,664.776119402985,681.492537313433,209.850746268657,227.761194029851,2,0.819815702503547
105,3,0,109,20,42,929.850746268655,896.41791044776,1000,955.124378109453,1,0.561655803008762
105,3,0,110,60,4,335.223880597015,325.671641791045,989.999999999999,979.502487562188,2,0.910628717494546
105,3,0,111,41,26,98.8059701492534,125.074626865671,0,0,1,0.567381141394435
105,3,0,112,21,4,396.119402985075,447.462686567164,989.999999999999,979.502487562188,1,0.551326140432138
105,3,0,113,60,53,335.223880597015,325.671641791045,786.567164179105,743.582089552239,2,0.291979349580288
105,3,0,114,20,30,929.850746268655,896.41791044776,195.522388059701,163.283582089552,1,0.297799063222556
105,3,0,115,18,26,88.059701492537,96.4179104477609,0,0,2,0.386688349593896
105,3,0,116,28,13,73.7313432835818,86.8656716417907,972.089552238805,950.845771144278,1,0.43515442446369
105,3,0,117,17,42,664.776119402985,681.492537313433,1000,955.124378109453,2,0.579585027722715
105,3,0,118,41,57,98.8059701492534,125.074626865671,0,0,2,0.885878769146075
105,3,0,119,28,49,73.7313432835818,86.8656716417907,209.850746268657,227.761194029851,1,0.942966584572787
105,3,0,120,9,30,156.119402985074,129.850746268656,195.522388059701,163.283582089552,2,0.632302666886972
106,1,1,1,11,3,675.522388059702,714.925373134328,70.149253731343,120.298507462686,3,10.0033292482221
106,1,1,2,23,57,220.597014925373,230.149253731343,793.731343283582,820,2,2.57997146039088
106,1,1,3,49,43,500,497.611940298507,449.850746268657,466.567164179104,1,2.24475734930638
106,1,1,4,1,36,800.89552238806,774.626865671642,302.985074626866,330.44776119403,1,2.11608409146356
106,1,1,5,10,18,70.149253731343,110.746268656716,492.835820895522,569.253731343284,2,1.61286186926372
106,1,1,6,51,29,790.149253731343,736.417910447761,661.194029850746,681.492537313433,2,1.67103846409009
106,1,1,7,17,14,750.746268656717,698.208955223881,593.134328358209,595.522388059701,1,2.14518182390748
106,1,1,8,19,48,915.5223880597,905.97014925373,299.402985074627,464.179104477612,1,2.42156642342707
106,1,1,9,11,14,675.522388059702,714.925373134328,593.134328358209,595.522388059701,1,2.0061484484977
106,1,1,10,57,29,793.731343283582,820,661.194029850746,681.492537313433,1,2.13869466335927
106,1,1,11,17,18,750.746268656717,698.208955223881,492.835820895522,569.253731343284,2,1.9577750656772
106,1,1,12,23,19,220.597014925373,230.149253731343,915.5223880597,905.97014925373,2,1.87837122356177
106,1,1,13,3,1,70.149253731343,120.298507462686,800.89552238806,774.626865671642,2,1.26968435739946
106,1,1,14,10,49,70.149253731343,110.746268656716,500,497.611940298507,2,1.71703755221279
106,1,1,15,51,48,790.149253731343,736.417910447761,299.402985074627,464.179104477612,2,1.612142463493
106,1,1,16,43,36,449.850746268657,466.567164179104,302.985074626866,330.44776119403,1,1.93735373975687
106,1,1,17,3,18,70.149253731343,120.298507462686,492.835820895522,569.253731343284,2,1.45255230073599
106,1,1,18,11,36,675.522388059702,714.925373134328,302.985074626866,330.44776119403,1,1.35649831996307
106,1,1,19,17,23,750.746268656717,698.208955223881,220.597014925373,230.149253731343,1,1.49159072816474
106,1,1,20,10,19,70.149253731343,110.746268656716,915.5223880597,905.97014925373,2,1.10549262772656
106,1,1,21,1,48,800.89552238806,774.626865671642,299.402985074627,464.179104477612,1,1.36672385579004
106,1,1,22,49,51,500,497.611940298507,790.149253731343,736.417910447761,1,1.80911647084758
106,1,1,23,14,57,593.134328358209,595.522388059701,793.731343283582,820,2,1.27512902151284
106,1,1,24,43,29,449.850746268657,466.567164179104,661.194029850746,681.492537313433,2,1.11186924692629
106,1,1,25,23,18,220.597014925373,230.149253731343,492.835820895522,569.253731343284,1,2.19449859643646
106,1,1,26,10,36,70.149253731343,110.746268656716,302.985074626866,330.44776119403,1,1.59983868485142
106,1,1,27,14,51,593.134328358209,595.522388059701,790.149253731343,736.417910447761,1,1.73067933485254
106,1,1,28,57,1,793.731343283582,820,800.89552238806,774.626865671642,1,1.59206995480235
106,1,1,29,11,49,675.522388059702,714.925373134328,500,497.611940298507,1,1.14582661050736
106,1,1,30,17,43,750.746268656717,698.208955223881,449.850746268657,466.567164179104,1,2.03416357814967
106,1,1,31,3,48,70.149253731343,120.298507462686,299.402985074627,464.179104477612,2,3.07734333422195
106,1,1,32,57,19,793.731343283582,820,915.5223880597,905.97014925373,2,1.39663558117536
106,1,1,33,36,48,302.985074626866,330.44776119403,299.402985074627,464.179104477612,2,3.17265438386858
106,1,1,34,14,49,593.134328358209,595.522388059701,500,497.611940298507,1,2.20267302538014
106,1,1,35,23,29,220.597014925373,230.149253731343,661.194029850746,681.492537313433,2,1.23596175627063
106,1,1,36,17,10,750.746268656717,698.208955223881,70.149253731343,110.746268656716,1,1.75681442049427
106,1,1,37,11,1,675.522388059702,714.925373134328,800.89552238806,774.626865671642,1,1.56346855316224
106,1,1,38,43,51,449.850746268657,466.567164179104,790.149253731343,736.417910447761,2,1.82675084418588
106,1,1,39,18,29,492.835820895522,569.253731343284,661.194029850746,681.492537313433,2,1.36605082997812
106,1,1,40,3,19,70.149253731343,120.298507462686,915.5223880597,905.97014925373,2,1.35445952739428
106,2,0,41,20,5,209.850746268656,263.582089552239,847.462686567164,860.597014925373,2,5.43247885912388
106,2,0,42,38,31,765.074626865671,784.179104477612,911.940298507462,846.268656716417,1,3.76795597186901
106,2,0,43,53,32,582.388059701493,516.716417910448,657.611940298508,734.029850746268,2,2.04339623411943
106,2,0,44,56,25,797.313432835821,788.955223880597,686.268656716418,707.761194029851,1,1.57286250891957
106,2,0,45,21,15,657.611940298508,671.940298507463,772.238805970149,808.059701492537,2,6.26420770242112
106,2,0,46,47,12,195.522388059701,256.417910447761,421.194029850746,480.89552238806,1,3.82367832678574
106,2,0,47,24,2,482.089552238806,519.10447761194,349.55223880597,359.10447761194,1,3.48812239605104
106,2,0,48,8,26,886.86567164179,860.597014925373,242.089552238806,292.238805970149,1,1.62114021593698
106,2,0,49,24,25,482.089552238806,519.10447761194,686.268656716418,707.761194029851,1,2.18634756641586
106,2,0,50,47,15,195.522388059701,256.417910447761,772.238805970149,808.059701492537,2,3.74646039687286
106,2,0,51,21,12,657.611940298508,671.940298507463,421.194029850746,480.89552238806,1,5.31370334722669
106,2,0,52,31,5,911.940298507462,846.268656716417,847.462686567164,860.597014925373,2,4.12691743235882
106,2,0,53,38,8,765.074626865671,784.179104477612,886.86567164179,860.597014925373,2,2.99241581570095
106,2,0,54,56,53,797.313432835821,788.955223880597,582.388059701493,516.716417910448,2,3.34323822511033
106,2,0,55,32,26,657.611940298508,734.029850746268,242.089552238806,292.238805970149,1,2.25165836816814
106,2,0,56,2,20,349.55223880597,359.10447761194,209.850746268656,263.582089552239,2,3.23207556666421
106,2,0,57,38,26,765.074626865671,784.179104477612,242.089552238806,292.238805970149,1,2.8583101934164
106,2,0,58,20,47,209.850746268656,263.582089552239,195.522388059701,256.417910447761,2,3.45917564668707
106,2,0,59,25,8,686.268656716418,707.761194029851,886.86567164179,860.597014925373,2,3.38492953842069
106,2,0,60,15,5,772.238805970149,808.059701492537,847.462686567164,860.597014925373,2,1.6119417813261
106,2,0,61,24,21,482.089552238806,519.10447761194,657.611940298508,671.940298507463,2,2.32615230646115
106,2,0,62,53,12,582.388059701493,516.716417910448,421.194029850746,480.89552238806,1,1.8620804038419
106,2,0,63,56,31,797.313432835821,788.955223880597,911.940298507462,846.268656716417,1,1.87110820810449
106,2,0,64,2,32,349.55223880597,359.10447761194,657.611940298508,734.029850746268,1,3.41302249458022
106,2,0,65,53,15,582.388059701493,516.716417910448,772.238805970149,808.059701492537,1,2.06082702404638
106,2,0,66,2,47,349.55223880597,359.10447761194,195.522388059701,256.417910447761,2,1.64679367129793
106,2,0,67,21,26,657.611940298508,671.940298507463,242.089552238806,292.238805970149,1,0.891424892321083
106,2,0,68,20,32,209.850746268656,263.582089552239,657.611940298508,734.029850746268,1,1.20985864685281
106,2,0,69,12,5,421.194029850746,480.89552238806,847.462686567164,860.597014925373,2,2.79535604600642
106,2,0,70,56,38,797.313432835821,788.955223880597,765.074626865671,784.179104477612,1,2.31021740403958
106,2,0,71,24,31,482.089552238806,519.10447761194,911.940298507462,846.268656716417,2,2.22486832959657
106,2,0,72,2,8,349.55223880597,359.10447761194,886.86567164179,860.597014925373,2,1.16253170642267
106,2,0,73,25,5,686.268656716418,707.761194029851,847.462686567164,860.597014925373,1,1.18302710719763
106,2,0,74,21,31,657.611940298508,671.940298507463,911.940298507462,846.268656716417,2,1.01782872076001
106,2,0,75,24,20,482.089552238806,519.10447761194,209.850746268656,263.582089552239,2,1.02351917870692
106,2,0,76,56,47,797.313432835821,788.955223880597,195.522388059701,256.417910447761,1,0.857164756091152
106,2,0,77,38,12,765.074626865671,784.179104477612,421.194029850746,480.89552238806,1,2.31295432215848
106,2,0,78,53,26,582.388059701493,516.716417910448,242.089552238806,292.238805970149,1,1.87656885567958
106,2,0,79,8,15,886.86567164179,860.597014925373,772.238805970149,808.059701492537,1,0.960750736130649
106,2,0,80,25,32,686.268656716418,707.761194029851,657.611940298508,734.029850746268,1,2.68652744946849
106,3,0,81,54,34,0,0,371.044776119403,340,1,2.96281227685358
106,3,0,82,39,6,227.761194029851,246.865671641791,73.7313432835818,105.970149253731,2,1.05981821929527
106,3,0,83,37,9,1000,1000,406.865671641791,435.522388059701,2,0.747412878918112
106,3,0,84,30,4,872.537313432835,896.41791044776,736.417910447761,688.656716417911,1,0.685956334475122
106,3,0,85,35,46,643.283582089552,688.656716417911,657.611940298508,693.432835820896,2,0.613129570143428
106,3,0,86,22,45,582.388059701493,645.671641791045,532.238805970149,552.537313432836,1,0.384115210106756
106,3,0,87,33,58,277.910447761194,251.641791044776,808.059701492537,827.164179104478,2,0.605572330061477
106,3,0,88,52,7,743.582089552239,750.746268656717,141.791044776119,234.925373134328,1,0.797191240520988
106,3,0,89,54,4,0,0,736.417910447761,688.656716417911,2,0.659572986282001
106,3,0,90,35,58,643.283582089552,688.656716417911,808.059701492537,827.164179104478,1,1.16354907383356
106,3,0,91,30,37,872.537313432835,896.41791044776,1000,1000,2,0.648072436702932
106,3,0,92,33,34,277.910447761194,251.641791044776,371.044776119403,340,1,0.663656135682686
106,3,0,93,22,46,582.388059701493,645.671641791045,657.611940298508,693.432835820896,2,0.71358937309742
106,3,0,94,7,6,141.791044776119,234.925373134328,73.7313432835818,105.970149253731,2,0.793437946473205
106,3,0,95,52,39,743.582089552239,750.746268656717,227.761194029851,246.865671641791,1,0.614933279524848
106,3,0,96,9,45,406.865671641791,435.522388059701,532.238805970149,552.537313432836,2,0.896858539696041
106,3,0,97,33,7,277.910447761194,251.641791044776,141.791044776119,234.925373134328,1,0.553259486548995
106,3,0,98,37,6,1000,1000,73.7313432835818,105.970149253731,2,0.607899782989989
106,3,0,99,39,46,227.761194029851,246.865671641791,657.611940298508,693.432835820896,1,0.841871947970503
106,3,0,100,22,58,582.388059701493,645.671641791045,808.059701492537,827.164179104478,2,0.675422252794306
106,3,0,101,35,4,643.283582089552,688.656716417911,736.417910447761,688.656716417911,1,0.912525211562752
106,3,0,102,52,54,743.582089552239,750.746268656717,0,0,2,0.74923323717303
106,3,0,103,34,45,371.044776119403,340,532.238805970149,552.537313432836,1,0.436727895736112
106,3,0,104,30,9,872.537313432835,896.41791044776,406.865671641791,435.522388059701,2,1.07012435643992
106,3,0,105,4,58,736.417910447761,688.656716417911,808.059701492537,827.164179104478,1,0.605728318447291
106,3,0,106,30,39,872.537313432835,896.41791044776,227.761194029851,246.865671641791,2,0.534358968210654
106,3,0,107,54,46,0,0,657.611940298508,693.432835820896,1,0.555693855607387
106,3,0,108,6,34,73.7313432835818,105.970149253731,371.044776119403,340,2,1.33729567044793
106,3,0,109,37,22,1000,1000,582.388059701493,645.671641791045,1,1.04800335065738
106,3,0,110,35,7,643.283582089552,688.656716417911,141.791044776119,234.925373134328,2,0.804371229864046
106,3,0,111,33,45,277.910447761194,251.641791044776,532.238805970149,552.537313432836,1,0.615842447874456
106,3,0,112,30,46,872.537313432835,896.41791044776,657.611940298508,693.432835820896,2,0.423777770743982
106,3,0,113,52,33,743.582089552239,750.746268656717,277.910447761194,251.641791044776,1,0.288195713921596
106,3,0,114,58,7,808.059701492537,827.164179104478,141.791044776119,234.925373134328,2,0.389710118684889
106,3,0,115,39,45,227.761194029851,246.865671641791,532.238805970149,552.537313432836,1,0.376145185706264
106,3,0,116,35,22,643.283582089552,688.656716417911,582.388059701493,645.671641791045,2,0.529552982117821
106,3,0,117,4,9,736.417910447761,688.656716417911,406.865671641791,435.522388059701,1,0.384975835873774
106,3,0,118,37,34,1000,1000,371.044776119403,340,2,0.600416855984804
106,3,0,119,52,6,743.582089552239,750.746268656717,73.7313432835818,105.970149253731,1,0.433064183551323
106,3,0,120,54,9,0,0,406.865671641791,435.522388059701,2,0.310487350054245
107,1,0,1,42,36,600.298507462687,664.776119402985,596.716417910448,585.970149253731,1,6.92091552203783
107,1,0,2,14,54,453.432835820895,504.776119402985,145.373134328358,132.238805970149,3,10.0033020088231
107,1,0,3,49,55,593.134328358209,628.955223880597,553.731343283582,547.761194029851,2,8.02698084648546
107,1,0,4,30,17,471.343283582089,471.343283582089,363.880597014925,294.626865671642,1,6.10304516317774
107,1,0,5,44,1,131.044776119403,103.582089552239,808.059701492537,767.462686567164,2,7.12450748543415
107,1,0,6,53,21,84.4776119402982,79.7014925373131,675.522388059702,650.44776119403,2,9.18948808703681
107,1,0,7,4,3,901.194029850745,870.149253731343,492.835820895522,531.044776119403,1,1.42877939375649
107,1,0,8,15,43,399.701492537313,390.149253731343,657.611940298508,693.432835820896,2,2.6074967006607
107,1,0,9,53,49,84.4776119402982,79.7014925373131,593.134328358209,628.955223880597,2,7.07886621718535
107,1,0,10,30,4,471.343283582089,471.343283582089,901.194029850745,870.149253731343,2,2.77282158073831
107,1,0,11,55,36,553.731343283582,547.761194029851,596.716417910448,585.970149253731,2,8.36735242639043
107,1,0,12,17,54,363.880597014925,294.626865671642,145.373134328358,132.238805970149,1,8.17824153375295
107,1,0,13,42,1,600.298507462687,664.776119402985,808.059701492537,767.462686567164,1,2.94202965282966
107,1,0,14,44,21,131.044776119403,103.582089552239,675.522388059702,650.44776119403,1,7.39779249015737
107,1,0,15,14,43,453.432835820895,504.776119402985,657.611940298508,693.432835820896,2,2.36491643100453
107,1,0,16,15,3,399.701492537313,390.149253731343,492.835820895522,531.044776119403,2,5.06175491320573
107,1,0,17,17,55,363.880597014925,294.626865671642,553.731343283582,547.761194029851,2,6.08513200112247
107,1,0,18,44,53,131.044776119403,103.582089552239,84.4776119402982,79.7014925373131,1,2.91505582334321
107,1,0,19,54,36,145.373134328358,132.238805970149,596.716417910448,585.970149253731,2,6.59052830036671
107,1,0,20,4,42,901.194029850745,870.149253731343,600.298507462687,664.776119402985,1,1.28579730545971
107,1,0,21,14,21,453.432835820895,504.776119402985,675.522388059702,650.44776119403,2,4.87369820238382
107,1,0,22,15,49,399.701492537313,390.149253731343,593.134328358209,628.955223880597,2,5.65352325349158
107,1,0,23,3,1,492.835820895522,531.044776119403,808.059701492537,767.462686567164,2,3.70900663243447
107,1,0,24,30,43,471.343283582089,471.343283582089,657.611940298508,693.432835820896,2,3.89924178705587
107,1,0,25,54,49,145.373134328358,132.238805970149,593.134328358209,628.955223880597,2,4.6903272629097
107,1,0,26,30,14,471.343283582089,471.343283582089,453.432835820895,504.776119402985,2,4.30841973242968
107,1,0,27,15,36,399.701492537313,390.149253731343,596.716417910448,585.970149253731,2,5.0062329172415
107,1,0,28,17,43,363.880597014925,294.626865671642,657.611940298508,693.432835820896,2,3.14935539216094
107,1,0,29,3,53,492.835820895522,531.044776119403,84.4776119402982,79.7014925373131,1,2.84787515996868
107,1,0,30,4,44,901.194029850745,870.149253731343,131.044776119403,103.582089552239,1,1.01577291022477
107,1,0,31,42,55,600.298507462687,664.776119402985,553.731343283582,547.761194029851,1,5.86861175108788
107,1,0,32,1,21,808.059701492537,767.462686567164,675.522388059702,650.44776119403,1,2.75435280662168
107,1,0,33,14,53,453.432835820895,504.776119402985,84.4776119402982,79.7014925373131,1,5.8964368321067
107,1,0,34,3,49,492.835820895522,531.044776119403,593.134328358209,628.955223880597,1,4.13188099793842
107,1,0,35,17,44,363.880597014925,294.626865671642,131.044776119403,103.582089552239,1,3.82541212286924
107,1,0,36,43,36,657.611940298508,693.432835820896,596.716417910448,585.970149253731,1,6.11398538033973
107,1,0,37,30,42,471.343283582089,471.343283582089,600.298507462687,664.776119402985,2,1.84147068915445
107,1,0,38,1,55,808.059701492537,767.462686567164,553.731343283582,547.761194029851,1,2.81914632265762
107,1,0,39,15,54,399.701492537313,390.149253731343,145.373134328358,132.238805970149,1,3.73343073361684
107,1,0,40,4,21,901.194029850745,870.149253731343,675.522388059702,650.44776119403,1,1.11436077091639
107,2,0,41,50,38,829.55223880597,817.611940298507,302.985074626866,265.970149253731,1,7.15145237043726
107,2,0,42,6,57,933.432835820894,927.462686567163,177.611940298507,156.119402985074,1,3.98085024634202
107,2,0,43,25,45,535.820895522388,457.014925373134,578.805970149254,600.298507462687,2,6.52863360280026
107,2,0,44,26,40,843.880597014925,793.731343283582,252.835820895522,244.477611940298,1,6.28830620413828
107,2,0,45,11,20,732.835820895523,679.104477611941,510.746268656716,490.44776119403,2,2.8230322726904
107,2,0,46,9,46,675.522388059702,652.835820895522,646.865671641791,664.776119402985,1,7.30045861397775
107,2,0,47,37,12,131.044776119403,254.029850746268,406.865671641791,394.925373134328,2,3.59375491176252
107,2,0,48,39,41,306.567164179104,304.179104477612,600.298507462687,609.850746268657,2,4.60299448677688
107,2,0,49,11,9,732.835820895523,679.104477611941,675.522388059702,652.835820895522,1,4.5496121254655
107,2,0,50,39,50,306.567164179104,304.179104477612,829.55223880597,817.611940298507,1,2.29520943682837
107,2,0,51,37,26,131.044776119403,254.029850746268,843.880597014925,793.731343283582,2,3.70642115746159
107,2,0,52,38,46,302.985074626866,265.970149253731,646.865671641791,664.776119402985,3,10.0045242566775
107,2,0,53,45,57,578.805970149254,600.298507462687,177.611940298507,156.119402985074,1,4.4240137752422
107,2,0,54,12,20,406.865671641791,394.925373134328,510.746268656716,490.44776119403,1,2.76792308116092
107,2,0,55,6,41,933.432835820894,927.462686567163,600.298507462687,609.850746268657,1,2.66418731633894
107,2,0,56,25,40,535.820895522388,457.014925373134,252.835820895522,244.477611940298,1,4.76663575630846
107,2,0,57,20,41,510.746268656716,490.44776119403,600.298507462687,609.850746268657,2,3.313289894837
107,2,0,58,39,37,306.567164179104,304.179104477612,131.044776119403,254.029850746268,1,6.61630890947345
107,2,0,59,45,9,578.805970149254,600.298507462687,675.522388059702,652.835820895522,2,5.56754645614819
107,2,0,60,12,26,406.865671641791,394.925373134328,843.880597014925,793.731343283582,2,2.50349918212305
107,2,0,61,6,46,933.432835820894,927.462686567163,646.865671641791,664.776119402985,1,1.70358982231846
107,2,0,62,38,40,302.985074626866,265.970149253731,252.835820895522,244.477611940298,1,6.38850940728662
107,2,0,63,25,57,535.820895522388,457.014925373134,177.611940298507,156.119402985074,1,2.82323861873738
107,2,0,64,11,50,732.835820895523,679.104477611941,829.55223880597,817.611940298507,1,4.72753313915928
107,2,0,65,45,12,578.805970149254,600.298507462687,406.865671641791,394.925373134328,1,2.76358160520431
107,2,0,66,39,11,306.567164179104,304.179104477612,732.835820895523,679.104477611941,2,2.179827721724
107,2,0,67,37,46,131.044776119403,254.029850746268,646.865671641791,664.776119402985,2,5.17015258624633
107,2,0,68,50,9,829.55223880597,817.611940298507,675.522388059702,652.835820895522,1,3.60426352963805
107,2,0,69,25,20,535.820895522388,457.014925373134,510.746268656716,490.44776119403,1,7.37396569680823
107,2,0,70,6,38,933.432835820894,927.462686567163,302.985074626866,265.970149253731,1,0.942399478546577
107,2,0,71,26,41,843.880597014925,793.731343283582,600.298507462687,609.850746268657,2,2.70266502601953
107,2,0,72,12,40,406.865671641791,394.925373134328,252.835820895522,244.477611940298,1,3.27670400266652
107,2,0,73,50,20,829.55223880597,817.611940298507,510.746268656716,490.44776119403,1,4.47195823759284
107,2,0,74,25,26,535.820895522388,457.014925373134,843.880597014925,793.731343283582,1,3.94787787011228
107,2,0,75,37,38,131.044776119403,254.029850746268,302.985074626866,265.970149253731,2,1.67881687192312
107,2,0,76,39,57,306.567164179104,304.179104477612,177.611940298507,156.119402985074,1,7.9675336908258
107,2,0,77,11,46,732.835820895523,679.104477611941,646.865671641791,664.776119402985,1,5.3736706190266
107,2,0,78,6,9,933.432835820894,927.462686567163,675.522388059702,652.835820895522,1,1.13572631046554
107,2,0,79,45,40,578.805970149254,600.298507462687,252.835820895522,244.477611940298,1,5.04679788543035
107,2,0,80,57,41,177.611940298507,156.119402985074,600.298507462687,609.850746268657,2,3.12379201787371
107,3,1,81,24,35,800.89552238806,777.014925373135,403.283582089552,404.477611940298,1,3.16388282116714
107,3,1,82,60,5,105.970149253731,115.522388059701,851.044776119403,827.164179104478,2,1.33065613727922
107,3,1,83,13,51,707.761194029851,669.55223880597,471.343283582089,430.746268656716,1,1.59138413826986
107,3,1,84,23,10,517.910447761194,519.10447761194,381.791044776119,459.402985074627,2,1.83023356585181
107,3,1,85,27,7,632.537313432836,600.298507462687,338.805970149254,349.55223880597,1,2.15158513755887
107,3,1,86,2,28,908.358208955223,882.089552238805,582.388059701493,588.358208955224,1,1.17091678950965
107,3,1,87,58,52,299.402985074627,261.194029850746,381.791044776119,332.835820895522,2,2.31352565260386
107,3,1,88,34,31,381.791044776119,316.119402985074,564.477611940299,495.223880597015,2,1.55911767100588
107,3,1,89,27,5,632.537313432836,600.298507462687,851.044776119403,827.164179104478,2,1.07629934494253
107,3,1,90,60,10,105.970149253731,115.522388059701,381.791044776119,459.402985074627,2,1.26222145683823
107,3,1,91,34,51,381.791044776119,316.119402985074,471.343283582089,430.746268656716,2,2.02887768344408
107,3,1,92,28,23,582.388059701493,588.358208955224,517.910447761194,519.10447761194,1,2.82388094205089
107,3,1,93,7,24,338.805970149254,349.55223880597,800.89552238806,777.014925373135,2,2.57615321761477
107,3,1,94,58,35,299.402985074627,261.194029850746,403.283582089552,404.477611940298,2,1.7211526275405
107,3,1,95,2,31,908.358208955223,882.089552238805,564.477611940299,495.223880597015,1,0.955242305926731
107,3,1,96,52,13,381.791044776119,332.835820895522,707.761194029851,669.55223880597,2,1.78561236898531
107,3,1,97,60,24,105.970149253731,115.522388059701,800.89552238806,777.014925373135,2,1.05094393666513
107,3,1,98,35,23,403.283582089552,404.477611940298,517.910447761194,519.10447761194,2,1.57724734662588
107,3,1,99,27,34,632.537313432836,600.298507462687,381.791044776119,316.119402985074,1,1.31567864586395
107,3,1,100,13,28,707.761194029851,669.55223880597,582.388059701493,588.358208955224,2,2.18220277713044
107,3,1,101,31,10,564.477611940299,495.223880597015,381.791044776119,459.402985074627,2,1.15322132790061
107,3,1,102,2,51,908.358208955223,882.089552238805,471.343283582089,430.746268656716,1,0.829444665860137
107,3,1,103,7,52,338.805970149254,349.55223880597,381.791044776119,332.835820895522,1,1.97858403302234
107,3,1,104,58,5,299.402985074627,261.194029850746,851.044776119403,827.164179104478,2,1.23976058511471
107,3,1,105,60,7,105.970149253731,115.522388059701,338.805970149254,349.55223880597,2,1.55253235351483
107,3,1,106,58,31,299.402985074627,261.194029850746,564.477611940299,495.223880597015,2,0.89241490598215
107,3,1,107,24,28,800.89552238806,777.014925373135,582.388059701493,588.358208955224,1,1.20683705692682
107,3,1,108,34,2,381.791044776119,316.119402985074,908.358208955223,882.089552238805,2,3.61108763641641
107,3,1,109,35,13,403.283582089552,404.477611940298,707.761194029851,669.55223880597,2,0.963582422842592
107,3,1,110,52,23,381.791044776119,332.835820895522,517.910447761194,519.10447761194,2,0.948255810306364
107,3,1,111,27,51,632.537313432836,600.298507462687,471.343283582089,430.746268656716,1,1.04360719654687
107,3,1,112,35,10,403.283582089552,404.477611940298,381.791044776119,459.402985074627,2,0.761874195031851
107,3,1,113,7,23,338.805970149254,349.55223880597,517.910447761194,519.10447761194,2,1.13374234545881
107,3,1,114,24,51,800.89552238806,777.014925373135,471.343283582089,430.746268656716,1,1.00159742177311
107,3,1,115,5,31,851.044776119403,827.164179104478,564.477611940299,495.223880597015,1,1.69099041783193
107,3,1,116,60,52,105.970149253731,115.522388059701,381.791044776119,332.835820895522,2,1.21337121771285
107,3,1,117,34,13,381.791044776119,316.119402985074,707.761194029851,669.55223880597,2,1.25895839379154
107,3,1,118,27,58,632.537313432836,600.298507462687,299.402985074627,261.194029850746,1,1.10130354651301
107,3,1,119,2,10,908.358208955223,882.089552238805,381.791044776119,459.402985074627,1,0.711456419498063
107,3,1,120,28,5,582.388059701493,588.358208955224,851.044776119403,827.164179104478,2,2.40432706774118
108,1,0,1,43,56,460.597014925373,480.89552238806,679.10447761194,681.492537313433,3,10.0035691178364
108,1,0,2,47,1,790.149253731343,796.119402985074,754.328358208955,755.522388059702,2,6.98750046788336
108,1,0,3,27,54,553.731343283582,571.641791044776,102.388059701492,108.358208955224,1,2.15562636368668
108,1,0,4,11,51,750.746268656717,741.194029850746,585.970149253731,578.805970149254,1,3.80112831792576
108,1,0,5,10,12,557.313432835821,602.686567164179,532.238805970149,538.208955223881,1,1.28411596800106
108,1,0,6,49,13,593.134328358209,597.910447761194,528.656716417911,528.656716417911,2,5.68610130752313
108,1,0,7,59,50,600.298507462687,621.79104477612,431.940298507463,473.731343283582,1,2.72231757732516
108,1,0,8,39,35,589.55223880597,638.507462686567,603.880597014925,614.626865671642,2,3.45972102082487
108,1,0,9,27,11,553.731343283582,571.641791044776,750.746268656717,741.194029850746,1,1.55833433773296
108,1,0,10,56,54,679.10447761194,681.492537313433,102.388059701492,108.358208955224,1,6.27674889435548
108,1,0,11,35,51,603.880597014925,614.626865671642,585.970149253731,578.805970149254,2,6.37334420383741
108,1,0,12,49,47,593.134328358209,597.910447761194,790.149253731343,796.119402985074,1,2.14351560917385
108,1,0,13,10,13,557.313432835821,602.686567164179,528.656716417911,528.656716417911,1,5.06914287131076
108,1,0,14,1,59,754.328358208955,755.522388059702,600.298507462687,621.79104477612,1,2.81153845325207
108,1,0,15,39,12,589.55223880597,638.507462686567,532.238805970149,538.208955223881,1,5.17788170139465
108,1,0,16,43,50,460.597014925373,480.89552238806,431.940298507463,473.731343283582,1,2.52751522748622
108,1,0,17,12,59,532.238805970149,538.208955223881,600.298507462687,621.79104477612,2,2.64130423215465
108,1,0,18,13,51,528.656716417911,528.656716417911,585.970149253731,578.805970149254,2,7.73424232215257
108,1,0,19,47,11,790.149253731343,796.119402985074,750.746268656717,741.194029850746,1,8.73602914068579
108,1,0,20,56,35,679.10447761194,681.492537313433,603.880597014925,614.626865671642,1,4.46882038793956
108,1,0,21,49,54,593.134328358209,597.910447761194,102.388059701492,108.358208955224,1,2.98171524564714
108,1,0,22,39,1,589.55223880597,638.507462686567,754.328358208955,755.522388059702,1,3.46518175411074
108,1,0,23,10,50,557.313432835821,602.686567164179,431.940298507463,473.731343283582,2,2.03585863759326
108,1,0,24,43,27,460.597014925373,480.89552238806,553.731343283582,571.641791044776,1,8.91631563463488
108,1,0,25,49,11,593.134328358209,597.910447761194,750.746268656717,741.194029850746,1,3.07759148272453
108,1,0,26,39,56,589.55223880597,638.507462686567,679.10447761194,681.492537313433,2,0.875852582103107
108,1,0,27,10,1,557.313432835821,602.686567164179,754.328358208955,755.522388059702,1,1.32798598762383
108,1,0,28,13,54,528.656716417911,528.656716417911,102.388059701492,108.358208955224,1,2.75472535298468
108,1,0,29,47,50,790.149253731343,796.119402985074,431.940298507463,473.731343283582,1,3.34569487989938
108,1,0,30,35,59,603.880597014925,614.626865671642,600.298507462687,621.79104477612,2,3.86127256206055
108,1,0,31,27,12,553.731343283582,571.641791044776,532.238805970149,538.208955223881,1,0.801494181778253
108,1,0,32,10,11,557.313432835821,602.686567164179,750.746268656717,741.194029850746,2,3.18207198359232
108,1,0,33,56,50,679.10447761194,681.492537313433,431.940298507463,473.731343283582,2,4.36745453434742
